{"publicData":[{"resource":{"resourceType":"MedicationDispense","id":"16000001","meta":{"profile":["https://simplifier.net/myhealthway/StructureDefinition/PublicMedicationDispense"]},"identifier":[{"system":"리소스식별자(미정)","value":"41818257-7c91-4ec5-b822-f46a27decec3"}],"contained":[{"resourceType":"Organization","id":"16200001","identifier":[{"system":"리소스식별체계(미정)","value":"91dc0f7c-21b2-429b-a045-d81cbb367733"}],"type":[{"coding":[{"system":"미정","code":"미정","display":"약국"}],"text":"약국"}],"name":"다솜약국","address":[{"text":"경기도 성남시 분당구 내정로"}]}],"status":"completed","medicationReference":{"reference":"Medication/16100001","resource":{"resourceType":"Medication","id":"16100001","meta":{"profile":["https://simplifier.net/myhealthway/StructureDefinition/PublicMedication"]},"identifier":[{"system":"리소스식별자(미정)","value":"medication1"}],"contained":[{"resourceType":"Substance","id":"163000001","identifier":[{"system":"리소스식별자(미정)","value":"cefuroxime axetil (as cefuroxime)"}]}],"code":{"coding":[{"system":"https://biz.kpis.or.kr/CodeSystem/kdcode","code":"643501240","display":"세프틸정250밀리그램(세푸록심악세틸)_(0.30072g/1정)"}],"text":"세프틸정250밀리그램(세푸록심악세틸)_(0.30072g/1정)"},"ingredient":[{"itemReference":{"reference":"Substance/163000001","resource":{"resourceType":"Substance","id":"163000001","identifier":[{"system":"리소스식별자(미정)","value":"cefuroxime axetil (as cefuroxime)"}],"code":{"coding":[{"system":"https://www.hira.or.kr","code":"128903ATB","display":"cefuroxime axetil (as cefuroxime)"}]}}}}]}},"subject":{"reference":"Patient/10000000","resource":{"resourceType":"Patient","id":"10000000","meta":{"profile":["https://simplifier.net/myhealthway/StructureDefinition/PublicPatient"]},"identifier":[{"type":{"coding":[{"system":"http://myhealthway.go.kr(가칭)","code":"MHID"}]},"system":"미정","value":"10237551"},{"type":{"coding":[{"system":"http://terminology.hl7.org/CodeSystem/v2-0203","code":"NNKOR"}]},"system":"http://mois.go.kr/rnn","value":"0502184******"}],"name":[{"text":"김민선"}]}},"performer":[{"actor":{"reference":"Organization/16200001","resource":{"resourceType":"Organization","id":"16200001","identifier":[{"system":"리소스식별체계(미정)","value":"91dc0f7c-21b2-429b-a045-d81cbb367733"}],"type":[{"coding":[{"system":"미정","code":"미정","display":"약국"}],"text":"약국"}],"name":"다솜약국","address":[{"text":"경기도 성남시 분당구 내정로"}]}}}],"daysSupply":{"value":7,"unit":"일","system":"http://unitsofmeasure.org","code":"d"},"whenPrepared":"2025-06-18","dosageInstruction":[{"text":"1정","timing":{"repeat":{"extension":[{"url":"https://simplifier.net/myhealthway/StructureDefinition/TimingforPublicMedicationDispense","valueString":"2"}],"frequency":2,"period":1,"periodUnit":"d"}},"doseAndRate":[{"doseQuantity":{"value":1.0}}]}]}},{"resource":{"resourceType":"MedicationDispense","id":"16000002","meta":{"profile":["https://simplifier.net/myhealthway/StructureDefinition/PublicMedicationDispense"]},"identifier":[{"system":"리소스식별자(미정)","value":"26522baf-caab-4cfd-b135-ab571dd9afdb"}],"contained":[{"resourceType":"Organization","id":"16200002","identifier":[{"system":"리소스식별체계(미정)","value":"53a95e29-d983-42b4-91f2-b4706793ea27"}],"type":[{"coding":[{"system":"미정","code":"미정","display":"약국"}],"text":"약국"}],"name":"다솜약국","address":[{"text":"경기도 성남시 분당구 내정로"}]}],"status":"completed","medicationReference":{"reference":"Medication/16100002","resource":{"resourceType":"Medication","id":"16100002","meta":{"profile":["https://simplifier.net/myhealthway/StructureDefinition/PublicMedication"]},"identifier":[{"system":"리소스식별자(미정)","value":"medication1"}],"contained":[{"resourceType":"Substance","id":"163000001","identifier":[{"system":"리소스식별자(미정)","value":"minocycline hydrochloride"}]}],"code":{"coding":[{"system":"https://biz.kpis.or.kr/CodeSystem/kdcode","code":"644700590","display":"미노씬캡슐50mg(미노사이클린염산염)_(50mg/1캡슐)"}],"text":"미노씬캡슐50mg(미노사이클린염산염)_(50mg/1캡슐)"},"ingredient":[{"itemReference":{"reference":"Substance/163000001","resource":{"resourceType":"Substance","id":"163000001","identifier":[{"system":"리소스식별자(미정)","value":"minocycline hydrochloride"}],"code":{"coding":[{"system":"https://www.hira.or.kr","code":"195903ACH","display":"minocycline hydrochloride"}]}}}}]}},"subject":{"reference":"Patient/10000000","resource":{"resourceType":"Patient","id":"10000000","meta":{"profile":["https://simplifier.net/myhealthway/StructureDefinition/PublicPatient"]},"identifier":[{"type":{"coding":[{"system":"http://myhealthway.go.kr(가칭)","code":"MHID"}]},"system":"미정","value":"10237551"},{"type":{"coding":[{"system":"http://terminology.hl7.org/CodeSystem/v2-0203","code":"NNKOR"}]},"system":"http://mois.go.kr/rnn","value":"0502184******"}],"name":[{"text":"김민선"}]}},"performer":[{"actor":{"reference":"Organization/16200002","resource":{"resourceType":"Organization","id":"16200002","identifier":[{"system":"리소스식별체계(미정)","value":"53a95e29-d983-42b4-91f2-b4706793ea27"}],"type":[{"coding":[{"system":"미정","code":"미정","display":"약국"}],"text":"약국"}],"name":"다솜약국","address":[{"text":"경기도 성남시 분당구 내정로"}]}}}],"daysSupply":{"value":15,"unit":"일","system":"http://unitsofmeasure.org","code":"d"},"whenPrepared":"2025-06-18","dosageInstruction":[{"text":"1캡슐","timing":{"repeat":{"extension":[{"url":"https://simplifier.net/myhealthway/StructureDefinition/TimingforPublicMedicationDispense","valueString":"2"}],"frequency":2,"period":1,"periodUnit":"d"}},"doseAndRate":[{"doseQuantity":{"value":1.0}}]}]}},{"resource":{"resourceType":"MedicationDispense","id":"16000003","meta":{"profile":["https://simplifier.net/myhealthway/StructureDefinition/PublicMedicationDispense"]},"identifier":[{"system":"리소스식별자(미정)","value":"23241a0e-b0a4-4276-9046-76962410cb38"}],"contained":[{"resourceType":"Organization","id":"16200003","identifier":[{"system":"리소스식별체계(미정)","value":"8a3248a4-2ac1-4267-a96c-f82916e0d0bf"}],"type":[{"coding":[{"system":"미정","code":"미정","display":"약국"}],"text":"약국"}],"name":"다솜약국","address":[{"text":"경기도 성남시 분당구 내정로"}]}],"status":"completed","medicationReference":{"reference":"Medication/16100003","resource":{"resourceType":"Medication","id":"16100003","meta":{"profile":["https://simplifier.net/myhealthway/StructureDefinition/PublicMedication"]},"identifier":[{"system":"리소스식별자(미정)","value":"medication1"}],"contained":[{"resourceType":"Substance","id":"163000001","identifier":[{"system":"리소스식별자(미정)","value":"artemisiae argyi folium 95% ethanol ext.(20→1)"}]}],"code":{"coding":[{"system":"https://biz.kpis.or.kr/CodeSystem/kdcode","code":"693900190","display":"스토마정(애엽95%에탄올연조엑스(20→1))_(60mg/1정)"}],"text":"스토마정(애엽95%에탄올연조엑스(20→1))_(60mg/1정)"},"ingredient":[{"itemReference":{"reference":"Substance/163000001","resource":{"resourceType":"Substance","id":"163000001","identifier":[{"system":"리소스식별자(미정)","value":"artemisiae argyi folium 95% ethanol ext.(20→1)"}],"code":{"coding":[{"system":"https://www.hira.or.kr","code":"430101ATB","display":"artemisiae argyi folium 95% ethanol ext.(20→1)"}]}}}}]}},"subject":{"reference":"Patient/10000000","resource":{"resourceType":"Patient","id":"10000000","meta":{"profile":["https://simplifier.net/myhealthway/StructureDefinition/PublicPatient"]},"identifier":[{"type":{"coding":[{"system":"http://myhealthway.go.kr(가칭)","code":"MHID"}]},"system":"미정","value":"10237551"},{"type":{"coding":[{"system":"http://terminology.hl7.org/CodeSystem/v2-0203","code":"NNKOR"}]},"system":"http://mois.go.kr/rnn","value":"0502184******"}],"name":[{"text":"김민선"}]}},"performer":[{"actor":{"reference":"Organization/16200003","resource":{"resourceType":"Organization","id":"16200003","identifier":[{"system":"리소스식별체계(미정)","value":"8a3248a4-2ac1-4267-a96c-f82916e0d0bf"}],"type":[{"coding":[{"system":"미정","code":"미정","display":"약국"}],"text":"약국"}],"name":"다솜약국","address":[{"text":"경기도 성남시 분당구 내정로"}]}}}],"daysSupply":{"value":7,"unit":"일","system":"http://unitsofmeasure.org","code":"d"},"whenPrepared":"2025-06-18","dosageInstruction":[{"text":"1정","timing":{"repeat":{"extension":[{"url":"https://simplifier.net/myhealthway/StructureDefinition/TimingforPublicMedicationDispense","valueString":"2"}],"frequency":2,"period":1,"periodUnit":"d"}},"doseAndRate":[{"doseQuantity":{"value":1.0}}]}]}},{"resource":{"resourceType":"MedicationDispense","id":"16000004","meta":{"profile":["https://simplifier.net/myhealthway/StructureDefinition/PublicMedicationDispense"]},"identifier":[{"system":"리소스식별자(미정)","value":"8525cf05-3cad-43b5-9345-642822ec8b5c"}],"contained":[{"resourceType":"Organization","id":"16200004","identifier":[{"system":"리소스식별체계(미정)","value":"68d87619-500f-49ec-9a08-ff6c87449efa"}],"type":[{"coding":[{"system":"미정","code":"미정","display":"약국"}],"text":"약국"}],"name":"다솜약국","address":[{"text":"경기도 성남시 분당구 내정로"}]}],"status":"completed","medicationReference":{"reference":"Medication/16100004","resource":{"resourceType":"Medication","id":"16100004","meta":{"profile":["https://simplifier.net/myhealthway/StructureDefinition/PublicMedication"]},"identifier":[{"system":"리소스식별자(미정)","value":"medication1"}],"contained":[{"resourceType":"Substance","id":"163000001","identifier":[{"system":"리소스식별자(미정)","value":"nadifloxacin"}]}],"code":{"coding":[{"system":"https://biz.kpis.or.kr/CodeSystem/kdcode","code":"ZA0000004"}]},"ingredient":[{"itemReference":{"reference":"Substance/163000001","resource":{"resourceType":"Substance","id":"163000001","identifier":[{"system":"리소스식별자(미정)","value":"nadifloxacin"}],"code":{"coding":[{"system":"https://www.hira.or.kr","code":"567201CCM","display":"nadifloxacin"}]}}}}]}},"subject":{"reference":"Patient/10000000","resource":{"resourceType":"Patient","id":"10000000","meta":{"profile":["https://simplifier.net/myhealthway/StructureDefinition/PublicPatient"]},"identifier":[{"type":{"coding":[{"system":"http://myhealthway.go.kr(가칭)","code":"MHID"}]},"system":"미정","value":"10237551"},{"type":{"coding":[{"system":"http://terminology.hl7.org/CodeSystem/v2-0203","code":"NNKOR"}]},"system":"http://mois.go.kr/rnn","value":"0502184******"}],"name":[{"text":"김민선"}]}},"performer":[{"actor":{"reference":"Organization/16200004","resource":{"resourceType":"Organization","id":"16200004","identifier":[{"system":"리소스식별체계(미정)","value":"68d87619-500f-49ec-9a08-ff6c87449efa"}],"type":[{"coding":[{"system":"미정","code":"미정","display":"약국"}],"text":"약국"}],"name":"다솜약국","address":[{"text":"경기도 성남시 분당구 내정로"}]}}}],"daysSupply":{"value":1,"unit":"일","system":"http://unitsofmeasure.org","code":"d"},"whenPrepared":"2025-06-18","dosageInstruction":[{"timing":{"repeat":{"extension":[{"url":"https://simplifier.net/myhealthway/StructureDefinition/TimingforPublicMedicationDispense","valueString":"1"}],"frequency":1,"period":1,"periodUnit":"d"}},"doseAndRate":[{"doseQuantity":{"value":1.0}}]}]}},{"resource":{"resourceType":"MedicationDispense","id":"16000005","meta":{"profile":["https://simplifier.net/myhealthway/StructureDefinition/PublicMedicationDispense"]},"identifier":[{"system":"리소스식별자(미정)","value":"2b9355e0-7de8-4491-9530-966f5261a559"}],"contained":[{"resourceType":"Organization","id":"16200005","identifier":[{"system":"리소스식별체계(미정)","value":"7278c57a-62aa-40d4-940c-5502bb5481ab"}],"type":[{"coding":[{"system":"미정","code":"미정","display":"약국"}],"text":"약국"}],"name":"가까운대학 약국","address":[{"text":"경기도 성남시 분당구 돌마로"}]}],"status":"completed","medicationReference":{"reference":"Medication/16100005","resource":{"resourceType":"Medication","id":"16100005","meta":{"profile":["https://simplifier.net/myhealthway/StructureDefinition/PublicMedication"]},"identifier":[{"system":"리소스식별자(미정)","value":"medication1"}],"contained":[{"resourceType":"Substance","id":"163000001","identifier":[{"system":"리소스식별자(미정)","value":"prednicarbate"}]}],"code":{"coding":[{"system":"https://biz.kpis.or.kr/CodeSystem/kdcode","code":"645702491","display":"삼아리도스타크림(프레드니카르베이트)_(50mg/20g)"}],"text":"삼아리도스타크림(프레드니카르베이트)_(50mg/20g)"},"ingredient":[{"itemReference":{"reference":"Substance/163000001","resource":{"resourceType":"Substance","id":"163000001","identifier":[{"system":"리소스식별자(미정)","value":"prednicarbate"}],"code":{"coding":[{"system":"https://www.hira.or.kr","code":"216935CCM","display":"prednicarbate"}]}}}}]}},"subject":{"reference":"Patient/10000000","resource":{"resourceType":"Patient","id":"10000000","meta":{"profile":["https://simplifier.net/myhealthway/StructureDefinition/PublicPatient"]},"identifier":[{"type":{"coding":[{"system":"http://myhealthway.go.kr(가칭)","code":"MHID"}]},"system":"미정","value":"10237551"},{"type":{"coding":[{"system":"http://terminology.hl7.org/CodeSystem/v2-0203","code":"NNKOR"}]},"system":"http://mois.go.kr/rnn","value":"0502184******"}],"name":[{"text":"김민선"}]}},"performer":[{"actor":{"reference":"Organization/16200005","resource":{"resourceType":"Organization","id":"16200005","identifier":[{"system":"리소스식별체계(미정)","value":"7278c57a-62aa-40d4-940c-5502bb5481ab"}],"type":[{"coding":[{"system":"미정","code":"미정","display":"약국"}],"text":"약국"}],"name":"가까운대학 약국","address":[{"text":"경기도 성남시 분당구 돌마로"}]}}}],"daysSupply":{"value":1,"unit":"일","system":"http://unitsofmeasure.org","code":"d"},"whenPrepared":"2025-05-23","dosageInstruction":[{"text":"20g/개","timing":{"repeat":{"extension":[{"url":"https://simplifier.net/myhealthway/StructureDefinition/TimingforPublicMedicationDispense","valueString":"1"}],"frequency":1,"period":1,"periodUnit":"d"}},"doseAndRate":[{"doseQuantity":{"value":10.0}}]}]}},{"resource":{"resourceType":"MedicationDispense","id":"16000006","meta":{"profile":["https://simplifier.net/myhealthway/StructureDefinition/PublicMedicationDispense"]},"identifier":[{"system":"리소스식별자(미정)","value":"4be383c0-7d67-4685-96c0-34beb1358b5a"}],"contained":[{"resourceType":"Organization","id":"16200006","identifier":[{"system":"리소스식별체계(미정)","value":"5ebb47a9-a81f-4762-97c1-d8f811c28158"}],"type":[{"coding":[{"system":"미정","code":"미정","display":"약국"}],"text":"약국"}],"name":"가까운대학 약국","address":[{"text":"경기도 성남시 분당구 돌마로"}]}],"status":"completed","medicationReference":{"reference":"Medication/16100006","resource":{"resourceType":"Medication","id":"16100006","meta":{"profile":["https://simplifier.net/myhealthway/StructureDefinition/PublicMedication"]},"identifier":[{"system":"리소스식별자(미정)","value":"medication1"}],"contained":[{"resourceType":"Substance","id":"163000001","identifier":[{"system":"리소스식별자(미정)","value":"bacteria culture of Lactobacillus rhamnosus R0011 and Lactobacillus helveticus R0052"}]}],"code":{"coding":[{"system":"https://biz.kpis.or.kr/CodeSystem/kdcode","code":"659900030","display":"라시도필캡슐_(락토바실루스람노수스R0011균락토바실루스아시도필루스Roo52균 혼합배양물, 20mg/1캡슐)"}],"text":"라시도필캡슐_(락토바실루스람노수스R0011균락토바실루스아시도필루스Roo52균 혼합배양물, 20mg/1캡슐)"},"ingredient":[{"itemReference":{"reference":"Substance/163000001","resource":{"resourceType":"Substance","id":"163000001","identifier":[{"system":"리소스식별자(미정)","value":"bacteria culture of Lactobacillus rhamnosus R0011 and Lactobacillus helveticus R0052"}],"code":{"coding":[{"system":"https://www.hira.or.kr","code":"487401ACH","display":"bacteria culture of Lactobacillus rhamnosus R0011 and Lactobacillus helveticus R0052"}]}}}}]}},"subject":{"reference":"Patient/10000000","resource":{"resourceType":"Patient","id":"10000000","meta":{"profile":["https://simplifier.net/myhealthway/StructureDefinition/PublicPatient"]},"identifier":[{"type":{"coding":[{"system":"http://myhealthway.go.kr(가칭)","code":"MHID"}]},"system":"미정","value":"10237551"},{"type":{"coding":[{"system":"http://terminology.hl7.org/CodeSystem/v2-0203","code":"NNKOR"}]},"system":"http://mois.go.kr/rnn","value":"0502184******"}],"name":[{"text":"김민선"}]}},"performer":[{"actor":{"reference":"Organization/16200006","resource":{"resourceType":"Organization","id":"16200006","identifier":[{"system":"리소스식별체계(미정)","value":"5ebb47a9-a81f-4762-97c1-d8f811c28158"}],"type":[{"coding":[{"system":"미정","code":"미정","display":"약국"}],"text":"약국"}],"name":"가까운대학 약국","address":[{"text":"경기도 성남시 분당구 돌마로"}]}}}],"daysSupply":{"value":49,"unit":"일","system":"http://unitsofmeasure.org","code":"d"},"whenPrepared":"2025-05-23","dosageInstruction":[{"text":"1캡슐","timing":{"repeat":{"extension":[{"url":"https://simplifier.net/myhealthway/StructureDefinition/TimingforPublicMedicationDispense","valueString":"1"}],"frequency":1,"period":1,"periodUnit":"d"}},"doseAndRate":[{"doseQuantity":{"value":1.0}}]}]}},{"resource":{"resourceType":"MedicationDispense","id":"16000007","meta":{"profile":["https://simplifier.net/myhealthway/StructureDefinition/PublicMedicationDispense"]},"identifier":[{"system":"리소스식별자(미정)","value":"d15c9671-5cc7-4eca-b550-f33b636e5ab9"}],"contained":[{"resourceType":"Organization","id":"16200007","identifier":[{"system":"리소스식별체계(미정)","value":"aae65ce1-baf0-45a4-a545-cd879ab0c70a"}],"type":[{"coding":[{"system":"미정","code":"미정","display":"약국"}],"text":"약국"}],"name":"가까운대학 약국","address":[{"text":"경기도 성남시 분당구 돌마로"}]}],"status":"completed","medicationReference":{"reference":"Medication/16100007","resource":{"resourceType":"Medication","id":"16100007","meta":{"profile":["https://simplifier.net/myhealthway/StructureDefinition/PublicMedication"]},"identifier":[{"system":"리소스식별자(미정)","value":"medication1"}],"contained":[{"resourceType":"Substance","id":"163000001","identifier":[{"system":"리소스식별자(미정)","value":"γ-linolenic acid"}]}],"code":{"coding":[{"system":"https://biz.kpis.or.kr/CodeSystem/kdcode","code":"664600720","display":"에보프림연질캡슐(달맞이꽃종자유)_(0.45g/1캡슐)"}],"text":"에보프림연질캡슐(달맞이꽃종자유)_(0.45g/1캡슐)"},"ingredient":[{"itemReference":{"reference":"Substance/163000001","resource":{"resourceType":"Substance","id":"163000001","identifier":[{"system":"리소스식별자(미정)","value":"γ-linolenic acid"}],"code":{"coding":[{"system":"https://www.hira.or.kr","code":"251201ACS","display":"γ-linolenic acid"}]}}}}]}},"subject":{"reference":"Patient/10000000","resource":{"resourceType":"Patient","id":"10000000","meta":{"profile":["https://simplifier.net/myhealthway/StructureDefinition/PublicPatient"]},"identifier":[{"type":{"coding":[{"system":"http://myhealthway.go.kr(가칭)","code":"MHID"}]},"system":"미정","value":"10237551"},{"type":{"coding":[{"system":"http://terminology.hl7.org/CodeSystem/v2-0203","code":"NNKOR"}]},"system":"http://mois.go.kr/rnn","value":"0502184******"}],"name":[{"text":"김민선"}]}},"performer":[{"actor":{"reference":"Organization/16200007","resource":{"resourceType":"Organization","id":"16200007","identifier":[{"system":"리소스식별체계(미정)","value":"aae65ce1-baf0-45a4-a545-cd879ab0c70a"}],"type":[{"coding":[{"system":"미정","code":"미정","display":"약국"}],"text":"약국"}],"name":"가까운대학 약국","address":[{"text":"경기도 성남시 분당구 돌마로"}]}}}],"daysSupply":{"value":49,"unit":"일","system":"http://unitsofmeasure.org","code":"d"},"whenPrepared":"2025-05-23","dosageInstruction":[{"text":"1캡슐","timing":{"repeat":{"extension":[{"url":"https://simplifier.net/myhealthway/StructureDefinition/TimingforPublicMedicationDispense","valueString":"2"}],"frequency":2,"period":1,"periodUnit":"d"}},"doseAndRate":[{"doseQuantity":{"value":2.0}}]}]}},{"resource":{"resourceType":"MedicationDispense","id":"16000008","meta":{"profile":["https://simplifier.net/myhealthway/StructureDefinition/PublicMedicationDispense"]},"identifier":[{"system":"리소스식별자(미정)","value":"40568a68-005f-4f9e-90ff-87a580a6c5e7"}],"contained":[{"resourceType":"Organization","id":"16200008","identifier":[{"system":"리소스식별체계(미정)","value":"90ba92e3-6c8e-4603-9ddb-28b98dd29ec0"}],"type":[{"coding":[{"system":"미정","code":"미정","display":"약국"}],"text":"약국"}],"name":"가자크린팜대학약국","address":[{"text":"경기도 성남시 분당구 금곡로"}]}],"status":"completed","medicationReference":{"reference":"Medication/16100008","resource":{"resourceType":"Medication","id":"16100008","meta":{"profile":["https://simplifier.net/myhealthway/StructureDefinition/PublicMedication"]},"identifier":[{"system":"리소스식별자(미정)","value":"medication1"}],"contained":[{"resourceType":"Substance","id":"163000001","identifier":[{"system":"리소스식별자(미정)","value":"bepotastine besilate"}]}],"code":{"coding":[{"system":"https://biz.kpis.or.kr/CodeSystem/kdcode","code":"626500960","display":"투리온정(베포타스틴베실산염)_(10mg/1정)"}],"text":"투리온정(베포타스틴베실산염)_(10mg/1정)"},"ingredient":[{"itemReference":{"reference":"Substance/163000001","resource":{"resourceType":"Substance","id":"163000001","identifier":[{"system":"리소스식별자(미정)","value":"bepotastine besilate"}],"code":{"coding":[{"system":"https://www.hira.or.kr","code":"453902ATB","display":"bepotastine besilate"}]}}}}]}},"subject":{"reference":"Patient/10000000","resource":{"resourceType":"Patient","id":"10000000","meta":{"profile":["https://simplifier.net/myhealthway/StructureDefinition/PublicPatient"]},"identifier":[{"type":{"coding":[{"system":"http://myhealthway.go.kr(가칭)","code":"MHID"}]},"system":"미정","value":"10237551"},{"type":{"coding":[{"system":"http://terminology.hl7.org/CodeSystem/v2-0203","code":"NNKOR"}]},"system":"http://mois.go.kr/rnn","value":"0502184******"}],"name":[{"text":"김민선"}]}},"performer":[{"actor":{"reference":"Organization/16200008","resource":{"resourceType":"Organization","id":"16200008","identifier":[{"system":"리소스식별체계(미정)","value":"90ba92e3-6c8e-4603-9ddb-28b98dd29ec0"}],"type":[{"coding":[{"system":"미정","code":"미정","display":"약국"}],"text":"약국"}],"name":"가자크린팜대학약국","address":[{"text":"경기도 성남시 분당구 금곡로"}]}}}],"daysSupply":{"value":30,"unit":"일","system":"http://unitsofmeasure.org","code":"d"},"whenPrepared":"2025-03-31","dosageInstruction":[{"text":"1정","timing":{"repeat":{"extension":[{"url":"https://simplifier.net/myhealthway/StructureDefinition/TimingforPublicMedicationDispense","valueString":"1"}],"frequency":1,"period":1,"periodUnit":"d"}},"doseAndRate":[{"doseQuantity":{"value":1.0}}]}]}},{"resource":{"resourceType":"MedicationDispense","id":"16000009","meta":{"profile":["https://simplifier.net/myhealthway/StructureDefinition/PublicMedicationDispense"]},"identifier":[{"system":"리소스식별자(미정)","value":"31056607-11c4-4d2e-99ae-ab8e548980da"}],"contained":[{"resourceType":"Organization","id":"16200009","identifier":[{"system":"리소스식별체계(미정)","value":"af8655d5-08c1-492c-a7d1-c18926e2a433"}],"type":[{"coding":[{"system":"미정","code":"미정","display":"약국"}],"text":"약국"}],"name":"가자크린팜대학약국","address":[{"text":"경기도 성남시 분당구 금곡로"}]}],"status":"completed","medicationReference":{"reference":"Medication/16100009","resource":{"resourceType":"Medication","id":"16100009","meta":{"profile":["https://simplifier.net/myhealthway/StructureDefinition/PublicMedication"]},"identifier":[{"system":"리소스식별자(미정)","value":"medication1"}],"contained":[{"resourceType":"Substance","id":"163000001","identifier":[{"system":"리소스식별자(미정)","value":"tacrolimus hydrate (as tacrolimus)"}]}],"code":{"coding":[{"system":"https://biz.kpis.or.kr/CodeSystem/kdcode","code":"626700112","display":"프로토픽연고0.1%(타크로리무스수화물)_(30.6mg/30g)"}],"text":"프로토픽연고0.1%(타크로리무스수화물)_(30.6mg/30g)"},"ingredient":[{"itemReference":{"reference":"Substance/163000001","resource":{"resourceType":"Substance","id":"163000001","identifier":[{"system":"리소스식별자(미정)","value":"tacrolimus hydrate (as tacrolimus)"}],"code":{"coding":[{"system":"https://www.hira.or.kr","code":"426333COM","display":"tacrolimus hydrate (as tacrolimus)"}]}}}}]}},"subject":{"reference":"Patient/10000000","resource":{"resourceType":"Patient","id":"10000000","meta":{"profile":["https://simplifier.net/myhealthway/StructureDefinition/PublicPatient"]},"identifier":[{"type":{"coding":[{"system":"http://myhealthway.go.kr(가칭)","code":"MHID"}]},"system":"미정","value":"10237551"},{"type":{"coding":[{"system":"http://terminology.hl7.org/CodeSystem/v2-0203","code":"NNKOR"}]},"system":"http://mois.go.kr/rnn","value":"0502184******"}],"name":[{"text":"김민선"}]}},"performer":[{"actor":{"reference":"Organization/16200009","resource":{"resourceType":"Organization","id":"16200009","identifier":[{"system":"리소스식별체계(미정)","value":"af8655d5-08c1-492c-a7d1-c18926e2a433"}],"type":[{"coding":[{"system":"미정","code":"미정","display":"약국"}],"text":"약국"}],"name":"가자크린팜대학약국","address":[{"text":"경기도 성남시 분당구 금곡로"}]}}}],"daysSupply":{"value":1,"unit":"일","system":"http://unitsofmeasure.org","code":"d"},"whenPrepared":"2025-03-31","dosageInstruction":[{"text":"30g/개","timing":{"repeat":{"extension":[{"url":"https://simplifier.net/myhealthway/StructureDefinition/TimingforPublicMedicationDispense","valueString":"1"}],"frequency":1,"period":1,"periodUnit":"d"}},"doseAndRate":[{"doseQuantity":{"value":1.0}}]}]}},{"resource":{"resourceType":"MedicationDispense","id":"16000010","meta":{"profile":["https://simplifier.net/myhealthway/StructureDefinition/PublicMedicationDispense"]},"identifier":[{"system":"리소스식별자(미정)","value":"ba071a08-22c1-4b8d-9156-d2bbb570f1f1"}],"contained":[{"resourceType":"Organization","id":"16200010","identifier":[{"system":"리소스식별체계(미정)","value":"2336b9ed-b1a2-4375-aa8e-a7ab9c60ced3"}],"type":[{"coding":[{"system":"미정","code":"미정","display":"약국"}],"text":"약국"}],"name":"가자크린팜대학약국","address":[{"text":"경기도 성남시 분당구 금곡로"}]}],"status":"completed","medicationReference":{"reference":"Medication/16100010","resource":{"resourceType":"Medication","id":"16100010","meta":{"profile":["https://simplifier.net/myhealthway/StructureDefinition/PublicMedication"]},"identifier":[{"system":"리소스식별자(미정)","value":"medication1"}],"contained":[{"resourceType":"Substance","id":"163000001","identifier":[{"system":"리소스식별자(미정)","value":"desoxymethasone"}]}],"code":{"coding":[{"system":"https://biz.kpis.or.kr/CodeSystem/kdcode","code":"643200104","display":"데타손연고0.25%(데속시메타손)_(75mg/30g)"}],"text":"데타손연고0.25%(데속시메타손)_(75mg/30g)"},"ingredient":[{"itemReference":{"reference":"Substance/163000001","resource":{"resourceType":"Substance","id":"163000001","identifier":[{"system":"리소스식별자(미정)","value":"desoxymethasone"}],"code":{"coding":[{"system":"https://www.hira.or.kr","code":"141634COM","display":"desoxymethasone"}]}}}}]}},"subject":{"reference":"Patient/10000000","resource":{"resourceType":"Patient","id":"10000000","meta":{"profile":["https://simplifier.net/myhealthway/StructureDefinition/PublicPatient"]},"identifier":[{"type":{"coding":[{"system":"http://myhealthway.go.kr(가칭)","code":"MHID"}]},"system":"미정","value":"10237551"},{"type":{"coding":[{"system":"http://terminology.hl7.org/CodeSystem/v2-0203","code":"NNKOR"}]},"system":"http://mois.go.kr/rnn","value":"0502184******"}],"name":[{"text":"김민선"}]}},"performer":[{"actor":{"reference":"Organization/16200010","resource":{"resourceType":"Organization","id":"16200010","identifier":[{"system":"리소스식별체계(미정)","value":"2336b9ed-b1a2-4375-aa8e-a7ab9c60ced3"}],"type":[{"coding":[{"system":"미정","code":"미정","display":"약국"}],"text":"약국"}],"name":"가자크린팜대학약국","address":[{"text":"경기도 성남시 분당구 금곡로"}]}}}],"daysSupply":{"value":1,"unit":"일","system":"http://unitsofmeasure.org","code":"d"},"whenPrepared":"2025-03-31","dosageInstruction":[{"text":"30g/개","timing":{"repeat":{"extension":[{"url":"https://simplifier.net/myhealthway/StructureDefinition/TimingforPublicMedicationDispense","valueString":"1"}],"frequency":1,"period":1,"periodUnit":"d"}},"doseAndRate":[{"doseQuantity":{"value":1.0}}]}]}},{"resource":{"resourceType":"MedicationDispense","id":"16000011","meta":{"profile":["https://simplifier.net/myhealthway/StructureDefinition/PublicMedicationDispense"]},"identifier":[{"system":"리소스식별자(미정)","value":"d67398a8-71bc-4ad1-80cd-3e89a2d133d7"}],"contained":[{"resourceType":"Organization","id":"16200011","identifier":[{"system":"리소스식별체계(미정)","value":"3484a80a-215d-44bd-b435-e29ee02c7574"}],"type":[{"coding":[{"system":"미정","code":"미정","display":"약국"}],"text":"약국"}],"name":"가자크린팜대학약국","address":[{"text":"경기도 성남시 분당구 금곡로"}]}],"status":"completed","medicationReference":{"reference":"Medication/16100011","resource":{"resourceType":"Medication","id":"16100011","meta":{"profile":["https://simplifier.net/myhealthway/StructureDefinition/PublicMedication"]},"identifier":[{"system":"리소스식별자(미정)","value":"medication1"}],"contained":[{"resourceType":"Substance","id":"163000001","identifier":[{"system":"리소스식별자(미정)","value":"prednicarbate"}]}],"code":{"coding":[{"system":"https://biz.kpis.or.kr/CodeSystem/kdcode","code":"645702491","display":"삼아리도스타크림(프레드니카르베이트)_(50mg/20g)"}],"text":"삼아리도스타크림(프레드니카르베이트)_(50mg/20g)"},"ingredient":[{"itemReference":{"reference":"Substance/163000001","resource":{"resourceType":"Substance","id":"163000001","identifier":[{"system":"리소스식별자(미정)","value":"prednicarbate"}],"code":{"coding":[{"system":"https://www.hira.or.kr","code":"216935CCM","display":"prednicarbate"}]}}}}]}},"subject":{"reference":"Patient/10000000","resource":{"resourceType":"Patient","id":"10000000","meta":{"profile":["https://simplifier.net/myhealthway/StructureDefinition/PublicPatient"]},"identifier":[{"type":{"coding":[{"system":"http://myhealthway.go.kr(가칭)","code":"MHID"}]},"system":"미정","value":"10237551"},{"type":{"coding":[{"system":"http://terminology.hl7.org/CodeSystem/v2-0203","code":"NNKOR"}]},"system":"http://mois.go.kr/rnn","value":"0502184******"}],"name":[{"text":"김민선"}]}},"performer":[{"actor":{"reference":"Organization/16200011","resource":{"resourceType":"Organization","id":"16200011","identifier":[{"system":"리소스식별체계(미정)","value":"3484a80a-215d-44bd-b435-e29ee02c7574"}],"type":[{"coding":[{"system":"미정","code":"미정","display":"약국"}],"text":"약국"}],"name":"가자크린팜대학약국","address":[{"text":"경기도 성남시 분당구 금곡로"}]}}}],"daysSupply":{"value":1,"unit":"일","system":"http://unitsofmeasure.org","code":"d"},"whenPrepared":"2025-03-31","dosageInstruction":[{"text":"20g/개","timing":{"repeat":{"extension":[{"url":"https://simplifier.net/myhealthway/StructureDefinition/TimingforPublicMedicationDispense","valueString":"1"}],"frequency":1,"period":1,"periodUnit":"d"}},"doseAndRate":[{"doseQuantity":{"value":1.0}}]}]}},{"resource":{"resourceType":"MedicationDispense","id":"16000012","meta":{"profile":["https://simplifier.net/myhealthway/StructureDefinition/PublicMedicationDispense"]},"identifier":[{"system":"리소스식별자(미정)","value":"1ea10352-7cd1-4696-b568-bd23a37265a6"}],"contained":[{"resourceType":"Organization","id":"16200012","identifier":[{"system":"리소스식별체계(미정)","value":"f95a7ee8-54af-4917-a8bd-090f517d66d0"}],"type":[{"coding":[{"system":"미정","code":"미정","display":"약국"}],"text":"약국"}],"name":"가자크린팜대학약국","address":[{"text":"경기도 성남시 분당구 금곡로"}]}],"status":"completed","medicationReference":{"reference":"Medication/16100012","resource":{"resourceType":"Medication","id":"16100012","meta":{"profile":["https://simplifier.net/myhealthway/StructureDefinition/PublicMedication"]},"identifier":[{"system":"리소스식별자(미정)","value":"medication1"}],"contained":[{"resourceType":"Substance","id":"163000001","identifier":[{"system":"리소스식별자(미정)","value":"γ-linolenic acid"}]}],"code":{"coding":[{"system":"https://biz.kpis.or.kr/CodeSystem/kdcode","code":"664600720","display":"에보프림연질캡슐(달맞이꽃종자유)_(0.45g/1캡슐)"}],"text":"에보프림연질캡슐(달맞이꽃종자유)_(0.45g/1캡슐)"},"ingredient":[{"itemReference":{"reference":"Substance/163000001","resource":{"resourceType":"Substance","id":"163000001","identifier":[{"system":"리소스식별자(미정)","value":"γ-linolenic acid"}],"code":{"coding":[{"system":"https://www.hira.or.kr","code":"251201ACS","display":"γ-linolenic acid"}]}}}}]}},"subject":{"reference":"Patient/10000000","resource":{"resourceType":"Patient","id":"10000000","meta":{"profile":["https://simplifier.net/myhealthway/StructureDefinition/PublicPatient"]},"identifier":[{"type":{"coding":[{"system":"http://myhealthway.go.kr(가칭)","code":"MHID"}]},"system":"미정","value":"10237551"},{"type":{"coding":[{"system":"http://terminology.hl7.org/CodeSystem/v2-0203","code":"NNKOR"}]},"system":"http://mois.go.kr/rnn","value":"0502184******"}],"name":[{"text":"김민선"}]}},"performer":[{"actor":{"reference":"Organization/16200012","resource":{"resourceType":"Organization","id":"16200012","identifier":[{"system":"리소스식별체계(미정)","value":"f95a7ee8-54af-4917-a8bd-090f517d66d0"}],"type":[{"coding":[{"system":"미정","code":"미정","display":"약국"}],"text":"약국"}],"name":"가자크린팜대학약국","address":[{"text":"경기도 성남시 분당구 금곡로"}]}}}],"daysSupply":{"value":30,"unit":"일","system":"http://unitsofmeasure.org","code":"d"},"whenPrepared":"2025-03-31","dosageInstruction":[{"text":"1캡슐","timing":{"repeat":{"extension":[{"url":"https://simplifier.net/myhealthway/StructureDefinition/TimingforPublicMedicationDispense","valueString":"2"}],"frequency":2,"period":1,"periodUnit":"d"}},"doseAndRate":[{"doseQuantity":{"value":2.0}}]}]}},{"resource":{"resourceType":"MedicationDispense","id":"16000013","meta":{"profile":["https://simplifier.net/myhealthway/StructureDefinition/PublicMedicationDispense"]},"identifier":[{"system":"리소스식별자(미정)","value":"81511641-1a61-4207-be27-09303e690a41"}],"contained":[{"resourceType":"Organization","id":"16200013","identifier":[{"system":"리소스식별체계(미정)","value":"5f9ad93a-0320-42ba-ad4d-4d69b96124d3"}],"type":[{"coding":[{"system":"미정","code":"미정","display":"약국"}],"text":"약국"}],"name":"바른약국","address":[{"text":"경기도 성남시 분당구 정자로"}]}],"status":"completed","medicationReference":{"reference":"Medication/16100013","resource":{"resourceType":"Medication","id":"16100013","meta":{"profile":["https://simplifier.net/myhealthway/StructureDefinition/PublicMedication"]},"identifier":[{"system":"리소스식별자(미정)","value":"medication1"}],"contained":[{"resourceType":"Substance","id":"163000001","identifier":[{"system":"리소스식별자(미정)","value":"mosapride citrate hydrate (as mosapride)"}]}],"code":{"coding":[{"system":"https://biz.kpis.or.kr/CodeSystem/kdcode","code":"647300350","display":"모사피아정(모사프리드시트르산염수화물)_(5.29mg/1정)"}],"text":"모사피아정(모사프리드시트르산염수화물)_(5.29mg/1정)"},"ingredient":[{"itemReference":{"reference":"Substance/163000001","resource":{"resourceType":"Substance","id":"163000001","identifier":[{"system":"리소스식별자(미정)","value":"mosapride citrate hydrate (as mosapride)"}],"code":{"coding":[{"system":"https://www.hira.or.kr","code":"421001ATB","display":"mosapride citrate hydrate (as mosapride)"}]}}}}]}},"subject":{"reference":"Patient/10000000","resource":{"resourceType":"Patient","id":"10000000","meta":{"profile":["https://simplifier.net/myhealthway/StructureDefinition/PublicPatient"]},"identifier":[{"type":{"coding":[{"system":"http://myhealthway.go.kr(가칭)","code":"MHID"}]},"system":"미정","value":"10237551"},{"type":{"coding":[{"system":"http://terminology.hl7.org/CodeSystem/v2-0203","code":"NNKOR"}]},"system":"http://mois.go.kr/rnn","value":"0502184******"}],"name":[{"text":"김민선"}]}},"performer":[{"actor":{"reference":"Organization/16200013","resource":{"resourceType":"Organization","id":"16200013","identifier":[{"system":"리소스식별체계(미정)","value":"5f9ad93a-0320-42ba-ad4d-4d69b96124d3"}],"type":[{"coding":[{"system":"미정","code":"미정","display":"약국"}],"text":"약국"}],"name":"바른약국","address":[{"text":"경기도 성남시 분당구 정자로"}]}}}],"daysSupply":{"value":3,"unit":"일","system":"http://unitsofmeasure.org","code":"d"},"whenPrepared":"2025-03-18","dosageInstruction":[{"text":"1정","timing":{"repeat":{"extension":[{"url":"https://simplifier.net/myhealthway/StructureDefinition/TimingforPublicMedicationDispense","valueString":"3"}],"frequency":3,"period":1,"periodUnit":"d"}},"doseAndRate":[{"doseQuantity":{"value":1.0}}]}]}},{"resource":{"resourceType":"MedicationDispense","id":"16000014","meta":{"profile":["https://simplifier.net/myhealthway/StructureDefinition/PublicMedicationDispense"]},"identifier":[{"system":"리소스식별자(미정)","value":"38a332b6-789b-4f02-adf6-828b1f0a1b9c"}],"contained":[{"resourceType":"Organization","id":"16200014","identifier":[{"system":"리소스식별체계(미정)","value":"0457e212-4870-4b52-958c-f04ee98d5446"}],"type":[{"coding":[{"system":"미정","code":"미정","display":"약국"}],"text":"약국"}],"name":"바른약국","address":[{"text":"경기도 성남시 분당구 정자로"}]}],"status":"completed","medicationReference":{"reference":"Medication/16100014","resource":{"resourceType":"Medication","id":"16100014","meta":{"profile":["https://simplifier.net/myhealthway/StructureDefinition/PublicMedication"]},"identifier":[{"system":"리소스식별자(미정)","value":"medication1"}],"contained":[{"resourceType":"Substance","id":"163000001","identifier":[{"system":"리소스식별자(미정)","value":"rebamipide"}]}],"code":{"coding":[{"system":"https://biz.kpis.or.kr/CodeSystem/kdcode","code":"670600880","display":"뮤코라민정(레바미피드)_(0.1g/1정)"}],"text":"뮤코라민정(레바미피드)_(0.1g/1정)"},"ingredient":[{"itemReference":{"reference":"Substance/163000001","resource":{"resourceType":"Substance","id":"163000001","identifier":[{"system":"리소스식별자(미정)","value":"rebamipide"}],"code":{"coding":[{"system":"https://www.hira.or.kr","code":"222901ATB","display":"rebamipide"}]}}}}]}},"subject":{"reference":"Patient/10000000","resource":{"resourceType":"Patient","id":"10000000","meta":{"profile":["https://simplifier.net/myhealthway/StructureDefinition/PublicPatient"]},"identifier":[{"type":{"coding":[{"system":"http://myhealthway.go.kr(가칭)","code":"MHID"}]},"system":"미정","value":"10237551"},{"type":{"coding":[{"system":"http://terminology.hl7.org/CodeSystem/v2-0203","code":"NNKOR"}]},"system":"http://mois.go.kr/rnn","value":"0502184******"}],"name":[{"text":"김민선"}]}},"performer":[{"actor":{"reference":"Organization/16200014","resource":{"resourceType":"Organization","id":"16200014","identifier":[{"system":"리소스식별체계(미정)","value":"0457e212-4870-4b52-958c-f04ee98d5446"}],"type":[{"coding":[{"system":"미정","code":"미정","display":"약국"}],"text":"약국"}],"name":"바른약국","address":[{"text":"경기도 성남시 분당구 정자로"}]}}}],"daysSupply":{"value":3,"unit":"일","system":"http://unitsofmeasure.org","code":"d"},"whenPrepared":"2025-03-18","dosageInstruction":[{"text":"1정","timing":{"repeat":{"extension":[{"url":"https://simplifier.net/myhealthway/StructureDefinition/TimingforPublicMedicationDispense","valueString":"3"}],"frequency":3,"period":1,"periodUnit":"d"}},"doseAndRate":[{"doseQuantity":{"value":1.0}}]}]}},{"resource":{"resourceType":"MedicationDispense","id":"16000015","meta":{"profile":["https://simplifier.net/myhealthway/StructureDefinition/PublicMedicationDispense"]},"identifier":[{"system":"리소스식별자(미정)","value":"d880ce86-eb8b-4a3a-9870-341b4d7d4bf8"}],"contained":[{"resourceType":"Organization","id":"16200015","identifier":[{"system":"리소스식별체계(미정)","value":"1208334b-9c29-4361-9f54-84e595075ed9"}],"type":[{"coding":[{"system":"미정","code":"미정","display":"약국"}],"text":"약국"}],"name":"바른약국","address":[{"text":"경기도 성남시 분당구 정자로"}]}],"status":"completed","medicationReference":{"reference":"Medication/16100015","resource":{"resourceType":"Medication","id":"16100015","meta":{"profile":["https://simplifier.net/myhealthway/StructureDefinition/PublicMedication"]},"identifier":[{"system":"리소스식별자(미정)","value":"medication1"}],"contained":[{"resourceType":"Substance","id":"163000001","identifier":[{"system":"리소스식별자(미정)","value":"tiropramide hydrochloride"}]}],"code":{"coding":[{"system":"https://biz.kpis.or.kr/CodeSystem/kdcode","code":"671803200","display":"티로드정(티로프라미드염산염)_(0.1g/1정)"}],"text":"티로드정(티로프라미드염산염)_(0.1g/1정)"},"ingredient":[{"itemReference":{"reference":"Substance/163000001","resource":{"resourceType":"Substance","id":"163000001","identifier":[{"system":"리소스식별자(미정)","value":"tiropramide hydrochloride"}],"code":{"coding":[{"system":"https://www.hira.or.kr","code":"240301ATB","display":"tiropramide hydrochloride"}]}}}}]}},"subject":{"reference":"Patient/10000000","resource":{"resourceType":"Patient","id":"10000000","meta":{"profile":["https://simplifier.net/myhealthway/StructureDefinition/PublicPatient"]},"identifier":[{"type":{"coding":[{"system":"http://myhealthway.go.kr(가칭)","code":"MHID"}]},"system":"미정","value":"10237551"},{"type":{"coding":[{"system":"http://terminology.hl7.org/CodeSystem/v2-0203","code":"NNKOR"}]},"system":"http://mois.go.kr/rnn","value":"0502184******"}],"name":[{"text":"김민선"}]}},"performer":[{"actor":{"reference":"Organization/16200015","resource":{"resourceType":"Organization","id":"16200015","identifier":[{"system":"리소스식별체계(미정)","value":"1208334b-9c29-4361-9f54-84e595075ed9"}],"type":[{"coding":[{"system":"미정","code":"미정","display":"약국"}],"text":"약국"}],"name":"바른약국","address":[{"text":"경기도 성남시 분당구 정자로"}]}}}],"daysSupply":{"value":3,"unit":"일","system":"http://unitsofmeasure.org","code":"d"},"whenPrepared":"2025-03-18","dosageInstruction":[{"text":"1정","timing":{"repeat":{"extension":[{"url":"https://simplifier.net/myhealthway/StructureDefinition/TimingforPublicMedicationDispense","valueString":"3"}],"frequency":3,"period":1,"periodUnit":"d"}},"doseAndRate":[{"doseQuantity":{"value":1.0}}]}]}},{"resource":{"resourceType":"MedicationDispense","id":"16000016","meta":{"profile":["https://simplifier.net/myhealthway/StructureDefinition/PublicMedicationDispense"]},"identifier":[{"system":"리소스식별자(미정)","value":"cdc430ba-a3b9-4ac1-9910-df171aaaef75"}],"contained":[{"resourceType":"Organization","id":"16200016","identifier":[{"system":"리소스식별체계(미정)","value":"2fa0c697-1e1a-4030-b508-b91b0561ab95"}],"type":[{"coding":[{"system":"미정","code":"미정","display":"약국"}],"text":"약국"}],"name":"바른약국","address":[{"text":"경기도 성남시 분당구 정자로"}]}],"status":"completed","medicationReference":{"reference":"Medication/16100016","resource":{"resourceType":"Medication","id":"16100016","meta":{"profile":["https://simplifier.net/myhealthway/StructureDefinition/PublicMedication"]},"identifier":[{"system":"리소스식별자(미정)","value":"medication1"}],"contained":[{"resourceType":"Substance","id":"163000001","identifier":[{"system":"리소스식별자(미정)","value":"pelubiprofen tromethamine (as pelubiprofen)"}]}],"code":{"coding":[{"system":"https://biz.kpis.or.kr/CodeSystem/kdcode","code":"671807340","display":"펠루비에스정(펠루비프로펜트로메타민)_(36.73mg/1정)"}],"text":"펠루비에스정(펠루비프로펜트로메타민)_(36.73mg/1정)"},"ingredient":[{"itemReference":{"reference":"Substance/163000001","resource":{"resourceType":"Substance","id":"163000001","identifier":[{"system":"리소스식별자(미정)","value":"pelubiprofen tromethamine (as pelubiprofen)"}],"code":{"coding":[{"system":"https://www.hira.or.kr","code":"697701ATB","display":"pelubiprofen tromethamine (as pelubiprofen)"}]}}}}]}},"subject":{"reference":"Patient/10000000","resource":{"resourceType":"Patient","id":"10000000","meta":{"profile":["https://simplifier.net/myhealthway/StructureDefinition/PublicPatient"]},"identifier":[{"type":{"coding":[{"system":"http://myhealthway.go.kr(가칭)","code":"MHID"}]},"system":"미정","value":"10237551"},{"type":{"coding":[{"system":"http://terminology.hl7.org/CodeSystem/v2-0203","code":"NNKOR"}]},"system":"http://mois.go.kr/rnn","value":"0502184******"}],"name":[{"text":"김민선"}]}},"performer":[{"actor":{"reference":"Organization/16200016","resource":{"resourceType":"Organization","id":"16200016","identifier":[{"system":"리소스식별체계(미정)","value":"2fa0c697-1e1a-4030-b508-b91b0561ab95"}],"type":[{"coding":[{"system":"미정","code":"미정","display":"약국"}],"text":"약국"}],"name":"바른약국","address":[{"text":"경기도 성남시 분당구 정자로"}]}}}],"daysSupply":{"value":3,"unit":"일","system":"http://unitsofmeasure.org","code":"d"},"whenPrepared":"2025-03-18","dosageInstruction":[{"text":"1정","timing":{"repeat":{"extension":[{"url":"https://simplifier.net/myhealthway/StructureDefinition/TimingforPublicMedicationDispense","valueString":"3"}],"frequency":3,"period":1,"periodUnit":"d"}},"doseAndRate":[{"doseQuantity":{"value":1.0}}]}]}},{"resource":{"resourceType":"MedicationDispense","id":"16000017","meta":{"profile":["https://simplifier.net/myhealthway/StructureDefinition/PublicMedicationDispense"]},"identifier":[{"system":"리소스식별자(미정)","value":"93b18749-e693-4eff-9c82-ddc851803b8b"}],"contained":[{"resourceType":"Organization","id":"16200017","identifier":[{"system":"리소스식별체계(미정)","value":"41d5f5bf-51df-4d81-8525-48002335b6a5"}],"type":[{"coding":[{"system":"미정","code":"미정","display":"약국"}],"text":"약국"}],"name":"휴베이스봄약국","address":[{"text":"경기도 성남시 분당구 내정로"}]}],"status":"completed","medicationReference":{"reference":"Medication/16100017","resource":{"resourceType":"Medication","id":"16100017","meta":{"profile":["https://simplifier.net/myhealthway/StructureDefinition/PublicMedication"]},"identifier":[{"system":"리소스식별자(미정)","value":"medication1"}],"contained":[{"resourceType":"Substance","id":"163000001","identifier":[{"system":"리소스식별자(미정)","value":"cefuroxime axetil (as cefuroxime)"}]}],"code":{"coding":[{"system":"https://biz.kpis.or.kr/CodeSystem/kdcode","code":"643501240","display":"세프틸정250밀리그램(세푸록심악세틸)_(0.30072g/1정)"}],"text":"세프틸정250밀리그램(세푸록심악세틸)_(0.30072g/1정)"},"ingredient":[{"itemReference":{"reference":"Substance/163000001","resource":{"resourceType":"Substance","id":"163000001","identifier":[{"system":"리소스식별자(미정)","value":"cefuroxime axetil (as cefuroxime)"}],"code":{"coding":[{"system":"https://www.hira.or.kr","code":"128903ATB","display":"cefuroxime axetil (as cefuroxime)"}]}}}}]}},"subject":{"reference":"Patient/10000000","resource":{"resourceType":"Patient","id":"10000000","meta":{"profile":["https://simplifier.net/myhealthway/StructureDefinition/PublicPatient"]},"identifier":[{"type":{"coding":[{"system":"http://myhealthway.go.kr(가칭)","code":"MHID"}]},"system":"미정","value":"10237551"},{"type":{"coding":[{"system":"http://terminology.hl7.org/CodeSystem/v2-0203","code":"NNKOR"}]},"system":"http://mois.go.kr/rnn","value":"0502184******"}],"name":[{"text":"김민선"}]}},"performer":[{"actor":{"reference":"Organization/16200017","resource":{"resourceType":"Organization","id":"16200017","identifier":[{"system":"리소스식별체계(미정)","value":"41d5f5bf-51df-4d81-8525-48002335b6a5"}],"type":[{"coding":[{"system":"미정","code":"미정","display":"약국"}],"text":"약국"}],"name":"휴베이스봄약국","address":[{"text":"경기도 성남시 분당구 내정로"}]}}}],"daysSupply":{"value":7,"unit":"일","system":"http://unitsofmeasure.org","code":"d"},"whenPrepared":"2024-12-09","dosageInstruction":[{"text":"1정","timing":{"repeat":{"extension":[{"url":"https://simplifier.net/myhealthway/StructureDefinition/TimingforPublicMedicationDispense","valueString":"2"}],"frequency":2,"period":1,"periodUnit":"d"}},"doseAndRate":[{"doseQuantity":{"value":1.0}}]}]}},{"resource":{"resourceType":"MedicationDispense","id":"16000018","meta":{"profile":["https://simplifier.net/myhealthway/StructureDefinition/PublicMedicationDispense"]},"identifier":[{"system":"리소스식별자(미정)","value":"fd0c2c36-2c63-4cad-9e1e-c754bda19226"}],"contained":[{"resourceType":"Organization","id":"16200018","identifier":[{"system":"리소스식별체계(미정)","value":"7e91f80b-ec15-4ffc-8e38-8462b1db1e44"}],"type":[{"coding":[{"system":"미정","code":"미정","display":"약국"}],"text":"약국"}],"name":"휴베이스봄약국","address":[{"text":"경기도 성남시 분당구 내정로"}]}],"status":"completed","medicationReference":{"reference":"Medication/16100018","resource":{"resourceType":"Medication","id":"16100018","meta":{"profile":["https://simplifier.net/myhealthway/StructureDefinition/PublicMedication"]},"identifier":[{"system":"리소스식별자(미정)","value":"medication1"}],"contained":[{"resourceType":"Substance","id":"163000001","identifier":[{"system":"리소스식별자(미정)","value":"artemisiae argyi folium 95% ethanol ext.(20→1)"}]}],"code":{"coding":[{"system":"https://biz.kpis.or.kr/CodeSystem/kdcode","code":"693900190","display":"스토마정(애엽95%에탄올연조엑스(20→1))_(60mg/1정)"}],"text":"스토마정(애엽95%에탄올연조엑스(20→1))_(60mg/1정)"},"ingredient":[{"itemReference":{"reference":"Substance/163000001","resource":{"resourceType":"Substance","id":"163000001","identifier":[{"system":"리소스식별자(미정)","value":"artemisiae argyi folium 95% ethanol ext.(20→1)"}],"code":{"coding":[{"system":"https://www.hira.or.kr","code":"430101ATB","display":"artemisiae argyi folium 95% ethanol ext.(20→1)"}]}}}}]}},"subject":{"reference":"Patient/10000000","resource":{"resourceType":"Patient","id":"10000000","meta":{"profile":["https://simplifier.net/myhealthway/StructureDefinition/PublicPatient"]},"identifier":[{"type":{"coding":[{"system":"http://myhealthway.go.kr(가칭)","code":"MHID"}]},"system":"미정","value":"10237551"},{"type":{"coding":[{"system":"http://terminology.hl7.org/CodeSystem/v2-0203","code":"NNKOR"}]},"system":"http://mois.go.kr/rnn","value":"0502184******"}],"name":[{"text":"김민선"}]}},"performer":[{"actor":{"reference":"Organization/16200018","resource":{"resourceType":"Organization","id":"16200018","identifier":[{"system":"리소스식별체계(미정)","value":"7e91f80b-ec15-4ffc-8e38-8462b1db1e44"}],"type":[{"coding":[{"system":"미정","code":"미정","display":"약국"}],"text":"약국"}],"name":"휴베이스봄약국","address":[{"text":"경기도 성남시 분당구 내정로"}]}}}],"daysSupply":{"value":7,"unit":"일","system":"http://unitsofmeasure.org","code":"d"},"whenPrepared":"2024-12-09","dosageInstruction":[{"text":"1정","timing":{"repeat":{"extension":[{"url":"https://simplifier.net/myhealthway/StructureDefinition/TimingforPublicMedicationDispense","valueString":"2"}],"frequency":2,"period":1,"periodUnit":"d"}},"doseAndRate":[{"doseQuantity":{"value":1.0}}]}]}},{"resource":{"resourceType":"MedicationDispense","id":"16000019","meta":{"profile":["https://simplifier.net/myhealthway/StructureDefinition/PublicMedicationDispense"]},"identifier":[{"system":"리소스식별자(미정)","value":"f2a459d6-8b8d-4537-864a-3229e6904495"}],"contained":[{"resourceType":"Organization","id":"16200019","identifier":[{"system":"리소스식별체계(미정)","value":"6ae17b66-70d0-4c94-8551-fd6fa02e4548"}],"type":[{"coding":[{"system":"미정","code":"미정","display":"약국"}],"text":"약국"}],"name":"다솜약국","address":[{"text":"경기도 성남시 분당구 내정로"}]}],"status":"completed","medicationReference":{"reference":"Medication/16100019","resource":{"resourceType":"Medication","id":"16100019","meta":{"profile":["https://simplifier.net/myhealthway/StructureDefinition/PublicMedication"]},"identifier":[{"system":"리소스식별자(미정)","value":"medication1"}],"contained":[{"resourceType":"Substance","id":"163000001","identifier":[{"system":"리소스식별자(미정)","value":"cefuroxime axetil (as cefuroxime)"}]}],"code":{"coding":[{"system":"https://biz.kpis.or.kr/CodeSystem/kdcode","code":"643501240","display":"세프틸정250밀리그램(세푸록심악세틸)_(0.30072g/1정)"}],"text":"세프틸정250밀리그램(세푸록심악세틸)_(0.30072g/1정)"},"ingredient":[{"itemReference":{"reference":"Substance/163000001","resource":{"resourceType":"Substance","id":"163000001","identifier":[{"system":"리소스식별자(미정)","value":"cefuroxime axetil (as cefuroxime)"}],"code":{"coding":[{"system":"https://www.hira.or.kr","code":"128903ATB","display":"cefuroxime axetil (as cefuroxime)"}]}}}}]}},"subject":{"reference":"Patient/10000000","resource":{"resourceType":"Patient","id":"10000000","meta":{"profile":["https://simplifier.net/myhealthway/StructureDefinition/PublicPatient"]},"identifier":[{"type":{"coding":[{"system":"http://myhealthway.go.kr(가칭)","code":"MHID"}]},"system":"미정","value":"10237551"},{"type":{"coding":[{"system":"http://terminology.hl7.org/CodeSystem/v2-0203","code":"NNKOR"}]},"system":"http://mois.go.kr/rnn","value":"0502184******"}],"name":[{"text":"김민선"}]}},"performer":[{"actor":{"reference":"Organization/16200019","resource":{"resourceType":"Organization","id":"16200019","identifier":[{"system":"리소스식별체계(미정)","value":"6ae17b66-70d0-4c94-8551-fd6fa02e4548"}],"type":[{"coding":[{"system":"미정","code":"미정","display":"약국"}],"text":"약국"}],"name":"다솜약국","address":[{"text":"경기도 성남시 분당구 내정로"}]}}}],"daysSupply":{"value":7,"unit":"일","system":"http://unitsofmeasure.org","code":"d"},"whenPrepared":"2024-12-03","dosageInstruction":[{"text":"1정","timing":{"repeat":{"extension":[{"url":"https://simplifier.net/myhealthway/StructureDefinition/TimingforPublicMedicationDispense","valueString":"2"}],"frequency":2,"period":1,"periodUnit":"d"}},"doseAndRate":[{"doseQuantity":{"value":1.0}}]}]}},{"resource":{"resourceType":"MedicationDispense","id":"16000020","meta":{"profile":["https://simplifier.net/myhealthway/StructureDefinition/PublicMedicationDispense"]},"identifier":[{"system":"리소스식별자(미정)","value":"6a099d07-12bd-47d2-8e94-1d4ddff5f326"}],"contained":[{"resourceType":"Organization","id":"16200020","identifier":[{"system":"리소스식별체계(미정)","value":"86b17163-e2e2-4240-8c84-691fc94dbeb0"}],"type":[{"coding":[{"system":"미정","code":"미정","display":"약국"}],"text":"약국"}],"name":"다솜약국","address":[{"text":"경기도 성남시 분당구 내정로"}]}],"status":"completed","medicationReference":{"reference":"Medication/16100020","resource":{"resourceType":"Medication","id":"16100020","meta":{"profile":["https://simplifier.net/myhealthway/StructureDefinition/PublicMedication"]},"identifier":[{"system":"리소스식별자(미정)","value":"medication1"}],"contained":[{"resourceType":"Substance","id":"163000001","identifier":[{"system":"리소스식별자(미정)","value":"mupirocin"}]}],"code":{"coding":[{"system":"https://biz.kpis.or.kr/CodeSystem/kdcode","code":"644100481","display":"에스로반연고(무피로신)_(0.2g/10g)"}],"text":"에스로반연고(무피로신)_(0.2g/10g)"},"ingredient":[{"itemReference":{"reference":"Substance/163000001","resource":{"resourceType":"Substance","id":"163000001","identifier":[{"system":"리소스식별자(미정)","value":"mupirocin"}],"code":{"coding":[{"system":"https://www.hira.or.kr","code":"197631COM","display":"mupirocin"}]}}}}]}},"subject":{"reference":"Patient/10000000","resource":{"resourceType":"Patient","id":"10000000","meta":{"profile":["https://simplifier.net/myhealthway/StructureDefinition/PublicPatient"]},"identifier":[{"type":{"coding":[{"system":"http://myhealthway.go.kr(가칭)","code":"MHID"}]},"system":"미정","value":"10237551"},{"type":{"coding":[{"system":"http://terminology.hl7.org/CodeSystem/v2-0203","code":"NNKOR"}]},"system":"http://mois.go.kr/rnn","value":"0502184******"}],"name":[{"text":"김민선"}]}},"performer":[{"actor":{"reference":"Organization/16200020","resource":{"resourceType":"Organization","id":"16200020","identifier":[{"system":"리소스식별체계(미정)","value":"86b17163-e2e2-4240-8c84-691fc94dbeb0"}],"type":[{"coding":[{"system":"미정","code":"미정","display":"약국"}],"text":"약국"}],"name":"다솜약국","address":[{"text":"경기도 성남시 분당구 내정로"}]}}}],"daysSupply":{"value":1,"unit":"일","system":"http://unitsofmeasure.org","code":"d"},"whenPrepared":"2024-12-03","dosageInstruction":[{"text":"10g/개","timing":{"repeat":{"extension":[{"url":"https://simplifier.net/myhealthway/StructureDefinition/TimingforPublicMedicationDispense","valueString":"1"}],"frequency":1,"period":1,"periodUnit":"d"}},"doseAndRate":[{"doseQuantity":{"value":1.0}}]}]}},{"resource":{"resourceType":"MedicationDispense","id":"16000021","meta":{"profile":["https://simplifier.net/myhealthway/StructureDefinition/PublicMedicationDispense"]},"identifier":[{"system":"리소스식별자(미정)","value":"c1e2e59d-20d5-4acb-a36b-174545e07454"}],"contained":[{"resourceType":"Organization","id":"16200021","identifier":[{"system":"리소스식별체계(미정)","value":"de67e13d-5d78-42bd-bd24-dbd8a670b99b"}],"type":[{"coding":[{"system":"미정","code":"미정","display":"약국"}],"text":"약국"}],"name":"다솜약국","address":[{"text":"경기도 성남시 분당구 내정로"}]}],"status":"completed","medicationReference":{"reference":"Medication/16100021","resource":{"resourceType":"Medication","id":"16100021","meta":{"profile":["https://simplifier.net/myhealthway/StructureDefinition/PublicMedication"]},"identifier":[{"system":"리소스식별자(미정)","value":"medication1"}],"contained":[{"resourceType":"Substance","id":"163000001","identifier":[{"system":"리소스식별자(미정)","value":"artemisiae argyi folium 95% ethanol ext.(20→1)"}]}],"code":{"coding":[{"system":"https://biz.kpis.or.kr/CodeSystem/kdcode","code":"693900190","display":"스토마정(애엽95%에탄올연조엑스(20→1))_(60mg/1정)"}],"text":"스토마정(애엽95%에탄올연조엑스(20→1))_(60mg/1정)"},"ingredient":[{"itemReference":{"reference":"Substance/163000001","resource":{"resourceType":"Substance","id":"163000001","identifier":[{"system":"리소스식별자(미정)","value":"artemisiae argyi folium 95% ethanol ext.(20→1)"}],"code":{"coding":[{"system":"https://www.hira.or.kr","code":"430101ATB","display":"artemisiae argyi folium 95% ethanol ext.(20→1)"}]}}}}]}},"subject":{"reference":"Patient/10000000","resource":{"resourceType":"Patient","id":"10000000","meta":{"profile":["https://simplifier.net/myhealthway/StructureDefinition/PublicPatient"]},"identifier":[{"type":{"coding":[{"system":"http://myhealthway.go.kr(가칭)","code":"MHID"}]},"system":"미정","value":"10237551"},{"type":{"coding":[{"system":"http://terminology.hl7.org/CodeSystem/v2-0203","code":"NNKOR"}]},"system":"http://mois.go.kr/rnn","value":"0502184******"}],"name":[{"text":"김민선"}]}},"performer":[{"actor":{"reference":"Organization/16200021","resource":{"resourceType":"Organization","id":"16200021","identifier":[{"system":"리소스식별체계(미정)","value":"de67e13d-5d78-42bd-bd24-dbd8a670b99b"}],"type":[{"coding":[{"system":"미정","code":"미정","display":"약국"}],"text":"약국"}],"name":"다솜약국","address":[{"text":"경기도 성남시 분당구 내정로"}]}}}],"daysSupply":{"value":7,"unit":"일","system":"http://unitsofmeasure.org","code":"d"},"whenPrepared":"2024-12-03","dosageInstruction":[{"text":"1정","timing":{"repeat":{"extension":[{"url":"https://simplifier.net/myhealthway/StructureDefinition/TimingforPublicMedicationDispense","valueString":"2"}],"frequency":2,"period":1,"periodUnit":"d"}},"doseAndRate":[{"doseQuantity":{"value":1.0}}]}]}},{"resource":{"resourceType":"MedicationDispense","id":"16000030","meta":{"profile":["https://simplifier.net/myhealthway/StructureDefinition/PublicMedicationDispense"]},"identifier":[{"system":"리소스식별자(미정)","value":"83a76911-a5f0-4599-b1b6-b457d2145983"}],"contained":[{"resourceType":"Organization","id":"16200030","identifier":[{"system":"리소스식별체계(미정)","value":"03345d38-9f9c-4c38-80f5-acb45ad15579"}],"type":[{"coding":[{"system":"미정","code":"미정","display":"약국"}],"text":"약국"}],"name":"서울복음치과의원","address":[{"text":"서울특별시 영등포구 국제금융로"}]}],"status":"completed","medicationReference":{"reference":"Medication/16100030","resource":{"resourceType":"Medication","id":"16100030","meta":{"profile":["https://simplifier.net/myhealthway/StructureDefinition/PublicMedication"]},"identifier":[{"system":"리소스식별자(미정)","value":"medication1"}],"contained":[{"resourceType":"Substance","id":"163000001","identifier":[{"system":"리소스식별자(미정)","value":"epinephrine bitartrate (as epinephrine)"}]}],"code":{"coding":[{"system":"https://biz.kpis.or.kr/CodeSystem/kdcode","code":"625300030","display":"노보콜100주(카트리지)_(1.8mL)"}],"text":"노보콜100주(카트리지)_(1.8mL)"},"ingredient":[{"itemReference":{"reference":"Substance/163000001","resource":{"resourceType":"Substance","id":"163000001","identifier":[{"system":"리소스식별자(미정)","value":"epinephrine bitartrate (as epinephrine)"}],"code":{"coding":[{"system":"https://www.hira.or.kr","code":"314300BIJ","display":"epinephrine bitartrate (as epinephrine)"}]}}}}]}},"subject":{"reference":"Patient/10000000","resource":{"resourceType":"Patient","id":"10000000","meta":{"profile":["https://simplifier.net/myhealthway/StructureDefinition/PublicPatient"]},"identifier":[{"type":{"coding":[{"system":"http://myhealthway.go.kr(가칭)","code":"MHID"}]},"system":"미정","value":"10237551"},{"type":{"coding":[{"system":"http://terminology.hl7.org/CodeSystem/v2-0203","code":"NNKOR"}]},"system":"http://mois.go.kr/rnn","value":"0502184******"}],"name":[{"text":"김민선"}]}},"performer":[{"actor":{"reference":"Organization/16200030","resource":{"resourceType":"Organization","id":"16200030","identifier":[{"system":"리소스식별체계(미정)","value":"03345d38-9f9c-4c38-80f5-acb45ad15579"}],"type":[{"coding":[{"system":"미정","code":"미정","display":"약국"}],"text":"약국"}],"name":"서울복음치과의원","address":[{"text":"서울특별시 영등포구 국제금융로"}]}}}],"daysSupply":{"value":1,"unit":"일","system":"http://unitsofmeasure.org","code":"d"},"whenPrepared":"2024-10-21","dosageInstruction":[{"text":"1.8mL/카트리지","timing":{"repeat":{"extension":[{"url":"https://simplifier.net/myhealthway/StructureDefinition/TimingforPublicMedicationDispense","valueString":"1"}],"frequency":1,"period":1,"periodUnit":"d"}},"doseAndRate":[{"doseQuantity":{"value":1.0}}]}]}},{"resource":{"resourceType":"MedicationDispense","id":"16000022","meta":{"profile":["https://simplifier.net/myhealthway/StructureDefinition/PublicMedicationDispense"]},"identifier":[{"system":"리소스식별자(미정)","value":"5e8e649d-f718-48a8-9e37-b52dd427c4cf"}],"contained":[{"resourceType":"Organization","id":"16200022","identifier":[{"system":"리소스식별체계(미정)","value":"17e64665-9b09-4b08-8af2-fba256169be1"}],"type":[{"coding":[{"system":"미정","code":"미정","display":"약국"}],"text":"약국"}],"name":"분당메디칼약국","address":[{"text":"경기도 성남시 분당구 돌마로"}]}],"status":"completed","medicationReference":{"reference":"Medication/16100022","resource":{"resourceType":"Medication","id":"16100022","meta":{"profile":["https://simplifier.net/myhealthway/StructureDefinition/PublicMedication"]},"identifier":[{"system":"리소스식별자(미정)","value":"medication1"}],"contained":[{"resourceType":"Substance","id":"163000001","identifier":[{"system":"리소스식별자(미정)","value":"bepotastine besilate"}]}],"code":{"coding":[{"system":"https://biz.kpis.or.kr/CodeSystem/kdcode","code":"626500960","display":"투리온정(베포타스틴베실산염)_(10mg/1정)"}],"text":"투리온정(베포타스틴베실산염)_(10mg/1정)"},"ingredient":[{"itemReference":{"reference":"Substance/163000001","resource":{"resourceType":"Substance","id":"163000001","identifier":[{"system":"리소스식별자(미정)","value":"bepotastine besilate"}],"code":{"coding":[{"system":"https://www.hira.or.kr","code":"453902ATB","display":"bepotastine besilate"}]}}}}]}},"subject":{"reference":"Patient/10000000","resource":{"resourceType":"Patient","id":"10000000","meta":{"profile":["https://simplifier.net/myhealthway/StructureDefinition/PublicPatient"]},"identifier":[{"type":{"coding":[{"system":"http://myhealthway.go.kr(가칭)","code":"MHID"}]},"system":"미정","value":"10237551"},{"type":{"coding":[{"system":"http://terminology.hl7.org/CodeSystem/v2-0203","code":"NNKOR"}]},"system":"http://mois.go.kr/rnn","value":"0502184******"}],"name":[{"text":"김민선"}]}},"performer":[{"actor":{"reference":"Organization/16200022","resource":{"resourceType":"Organization","id":"16200022","identifier":[{"system":"리소스식별체계(미정)","value":"17e64665-9b09-4b08-8af2-fba256169be1"}],"type":[{"coding":[{"system":"미정","code":"미정","display":"약국"}],"text":"약국"}],"name":"분당메디칼약국","address":[{"text":"경기도 성남시 분당구 돌마로"}]}}}],"daysSupply":{"value":90,"unit":"일","system":"http://unitsofmeasure.org","code":"d"},"whenPrepared":"2024-10-21","dosageInstruction":[{"text":"1정","timing":{"repeat":{"extension":[{"url":"https://simplifier.net/myhealthway/StructureDefinition/TimingforPublicMedicationDispense","valueString":"1"}],"frequency":1,"period":1,"periodUnit":"d"}},"doseAndRate":[{"doseQuantity":{"value":1.0}}]}]}},{"resource":{"resourceType":"MedicationDispense","id":"16000023","meta":{"profile":["https://simplifier.net/myhealthway/StructureDefinition/PublicMedicationDispense"]},"identifier":[{"system":"리소스식별자(미정)","value":"1404d6cc-2b04-4147-b475-c86dc820034b"}],"contained":[{"resourceType":"Organization","id":"16200023","identifier":[{"system":"리소스식별체계(미정)","value":"f435ea99-a0ff-4557-9879-b124e6cca962"}],"type":[{"coding":[{"system":"미정","code":"미정","display":"약국"}],"text":"약국"}],"name":"분당메디칼약국","address":[{"text":"경기도 성남시 분당구 돌마로"}]}],"status":"completed","medicationReference":{"reference":"Medication/16100023","resource":{"resourceType":"Medication","id":"16100023","meta":{"profile":["https://simplifier.net/myhealthway/StructureDefinition/PublicMedication"]},"identifier":[{"system":"리소스식별자(미정)","value":"medication1"}],"contained":[{"resourceType":"Substance","id":"163000001","identifier":[{"system":"리소스식별자(미정)","value":"tacrolimus hydrate (as tacrolimus)"}]}],"code":{"coding":[{"system":"https://biz.kpis.or.kr/CodeSystem/kdcode","code":"626700112","display":"프로토픽연고0.1%(타크로리무스수화물)_(30.6mg/30g)"}],"text":"프로토픽연고0.1%(타크로리무스수화물)_(30.6mg/30g)"},"ingredient":[{"itemReference":{"reference":"Substance/163000001","resource":{"resourceType":"Substance","id":"163000001","identifier":[{"system":"리소스식별자(미정)","value":"tacrolimus hydrate (as tacrolimus)"}],"code":{"coding":[{"system":"https://www.hira.or.kr","code":"426333COM","display":"tacrolimus hydrate (as tacrolimus)"}]}}}}]}},"subject":{"reference":"Patient/10000000","resource":{"resourceType":"Patient","id":"10000000","meta":{"profile":["https://simplifier.net/myhealthway/StructureDefinition/PublicPatient"]},"identifier":[{"type":{"coding":[{"system":"http://myhealthway.go.kr(가칭)","code":"MHID"}]},"system":"미정","value":"10237551"},{"type":{"coding":[{"system":"http://terminology.hl7.org/CodeSystem/v2-0203","code":"NNKOR"}]},"system":"http://mois.go.kr/rnn","value":"0502184******"}],"name":[{"text":"김민선"}]}},"performer":[{"actor":{"reference":"Organization/16200023","resource":{"resourceType":"Organization","id":"16200023","identifier":[{"system":"리소스식별체계(미정)","value":"f435ea99-a0ff-4557-9879-b124e6cca962"}],"type":[{"coding":[{"system":"미정","code":"미정","display":"약국"}],"text":"약국"}],"name":"분당메디칼약국","address":[{"text":"경기도 성남시 분당구 돌마로"}]}}}],"daysSupply":{"value":1,"unit":"일","system":"http://unitsofmeasure.org","code":"d"},"whenPrepared":"2024-10-21","dosageInstruction":[{"text":"30g/개","timing":{"repeat":{"extension":[{"url":"https://simplifier.net/myhealthway/StructureDefinition/TimingforPublicMedicationDispense","valueString":"1"}],"frequency":1,"period":1,"periodUnit":"d"}},"doseAndRate":[{"doseQuantity":{"value":2.0}}]}]}},{"resource":{"resourceType":"MedicationDispense","id":"16000024","meta":{"profile":["https://simplifier.net/myhealthway/StructureDefinition/PublicMedicationDispense"]},"identifier":[{"system":"리소스식별자(미정)","value":"ad113c0e-a60d-4dc3-8d82-c02cb87d3b20"}],"contained":[{"resourceType":"Organization","id":"16200024","identifier":[{"system":"리소스식별체계(미정)","value":"8ceee833-3aaa-4498-a1bc-bb437ea68bef"}],"type":[{"coding":[{"system":"미정","code":"미정","display":"약국"}],"text":"약국"}],"name":"분당메디칼약국","address":[{"text":"경기도 성남시 분당구 돌마로"}]}],"status":"completed","medicationReference":{"reference":"Medication/16100024","resource":{"resourceType":"Medication","id":"16100024","meta":{"profile":["https://simplifier.net/myhealthway/StructureDefinition/PublicMedication"]},"identifier":[{"system":"리소스식별자(미정)","value":"medication1"}],"contained":[{"resourceType":"Substance","id":"163000001","identifier":[{"system":"리소스식별자(미정)","value":"desoxymethasone"}]}],"code":{"coding":[{"system":"https://biz.kpis.or.kr/CodeSystem/kdcode","code":"643200104","display":"데타손연고0.25%(데속시메타손)_(75mg/30g)"}],"text":"데타손연고0.25%(데속시메타손)_(75mg/30g)"},"ingredient":[{"itemReference":{"reference":"Substance/163000001","resource":{"resourceType":"Substance","id":"163000001","identifier":[{"system":"리소스식별자(미정)","value":"desoxymethasone"}],"code":{"coding":[{"system":"https://www.hira.or.kr","code":"141634COM","display":"desoxymethasone"}]}}}}]}},"subject":{"reference":"Patient/10000000","resource":{"resourceType":"Patient","id":"10000000","meta":{"profile":["https://simplifier.net/myhealthway/StructureDefinition/PublicPatient"]},"identifier":[{"type":{"coding":[{"system":"http://myhealthway.go.kr(가칭)","code":"MHID"}]},"system":"미정","value":"10237551"},{"type":{"coding":[{"system":"http://terminology.hl7.org/CodeSystem/v2-0203","code":"NNKOR"}]},"system":"http://mois.go.kr/rnn","value":"0502184******"}],"name":[{"text":"김민선"}]}},"performer":[{"actor":{"reference":"Organization/16200024","resource":{"resourceType":"Organization","id":"16200024","identifier":[{"system":"리소스식별체계(미정)","value":"8ceee833-3aaa-4498-a1bc-bb437ea68bef"}],"type":[{"coding":[{"system":"미정","code":"미정","display":"약국"}],"text":"약국"}],"name":"분당메디칼약국","address":[{"text":"경기도 성남시 분당구 돌마로"}]}}}],"daysSupply":{"value":1,"unit":"일","system":"http://unitsofmeasure.org","code":"d"},"whenPrepared":"2024-10-21","dosageInstruction":[{"text":"30g/개","timing":{"repeat":{"extension":[{"url":"https://simplifier.net/myhealthway/StructureDefinition/TimingforPublicMedicationDispense","valueString":"1"}],"frequency":1,"period":1,"periodUnit":"d"}},"doseAndRate":[{"doseQuantity":{"value":1.0}}]}]}},{"resource":{"resourceType":"MedicationDispense","id":"16000025","meta":{"profile":["https://simplifier.net/myhealthway/StructureDefinition/PublicMedicationDispense"]},"identifier":[{"system":"리소스식별자(미정)","value":"7ad150f1-2d6d-41dd-a771-54578674694a"}],"contained":[{"resourceType":"Organization","id":"16200025","identifier":[{"system":"리소스식별체계(미정)","value":"1c3ea10a-48d3-4e7e-8318-efebc3e41a15"}],"type":[{"coding":[{"system":"미정","code":"미정","display":"약국"}],"text":"약국"}],"name":"분당메디칼약국","address":[{"text":"경기도 성남시 분당구 돌마로"}]}],"status":"completed","medicationReference":{"reference":"Medication/16100025","resource":{"resourceType":"Medication","id":"16100025","meta":{"profile":["https://simplifier.net/myhealthway/StructureDefinition/PublicMedication"]},"identifier":[{"system":"리소스식별자(미정)","value":"medication1"}],"contained":[{"resourceType":"Substance","id":"163000001","identifier":[{"system":"리소스식별자(미정)","value":"prednicarbate"}]}],"code":{"coding":[{"system":"https://biz.kpis.or.kr/CodeSystem/kdcode","code":"645702491","display":"삼아리도스타크림(프레드니카르베이트)_(50mg/20g)"}],"text":"삼아리도스타크림(프레드니카르베이트)_(50mg/20g)"},"ingredient":[{"itemReference":{"reference":"Substance/163000001","resource":{"resourceType":"Substance","id":"163000001","identifier":[{"system":"리소스식별자(미정)","value":"prednicarbate"}],"code":{"coding":[{"system":"https://www.hira.or.kr","code":"216935CCM","display":"prednicarbate"}]}}}}]}},"subject":{"reference":"Patient/10000000","resource":{"resourceType":"Patient","id":"10000000","meta":{"profile":["https://simplifier.net/myhealthway/StructureDefinition/PublicPatient"]},"identifier":[{"type":{"coding":[{"system":"http://myhealthway.go.kr(가칭)","code":"MHID"}]},"system":"미정","value":"10237551"},{"type":{"coding":[{"system":"http://terminology.hl7.org/CodeSystem/v2-0203","code":"NNKOR"}]},"system":"http://mois.go.kr/rnn","value":"0502184******"}],"name":[{"text":"김민선"}]}},"performer":[{"actor":{"reference":"Organization/16200025","resource":{"resourceType":"Organization","id":"16200025","identifier":[{"system":"리소스식별체계(미정)","value":"1c3ea10a-48d3-4e7e-8318-efebc3e41a15"}],"type":[{"coding":[{"system":"미정","code":"미정","display":"약국"}],"text":"약국"}],"name":"분당메디칼약국","address":[{"text":"경기도 성남시 분당구 돌마로"}]}}}],"daysSupply":{"value":1,"unit":"일","system":"http://unitsofmeasure.org","code":"d"},"whenPrepared":"2024-10-21","dosageInstruction":[{"text":"20g/개","timing":{"repeat":{"extension":[{"url":"https://simplifier.net/myhealthway/StructureDefinition/TimingforPublicMedicationDispense","valueString":"1"}],"frequency":1,"period":1,"periodUnit":"d"}},"doseAndRate":[{"doseQuantity":{"value":3.0}}]}]}},{"resource":{"resourceType":"MedicationDispense","id":"16000026","meta":{"profile":["https://simplifier.net/myhealthway/StructureDefinition/PublicMedicationDispense"]},"identifier":[{"system":"리소스식별자(미정)","value":"804e137b-cb9e-4987-8940-b093379605bd"}],"contained":[{"resourceType":"Organization","id":"16200026","identifier":[{"system":"리소스식별체계(미정)","value":"2e751906-bb36-4df9-9d7b-dbcfc4cfc313"}],"type":[{"coding":[{"system":"미정","code":"미정","display":"약국"}],"text":"약국"}],"name":"분당메디칼약국","address":[{"text":"경기도 성남시 분당구 돌마로"}]}],"status":"completed","medicationReference":{"reference":"Medication/16100026","resource":{"resourceType":"Medication","id":"16100026","meta":{"profile":["https://simplifier.net/myhealthway/StructureDefinition/PublicMedication"]},"identifier":[{"system":"리소스식별자(미정)","value":"medication1"}],"contained":[{"resourceType":"Substance","id":"163000001","identifier":[{"system":"리소스식별자(미정)","value":"bacillus subtilis"}]}],"code":{"coding":[{"system":"https://biz.kpis.or.kr/CodeSystem/kdcode","code":"655605380","display":"바이오탑하이포르테캡슐_(1캡슐)"}],"text":"바이오탑하이포르테캡슐_(1캡슐)"},"ingredient":[{"itemReference":{"reference":"Substance/163000001","resource":{"resourceType":"Substance","id":"163000001","identifier":[{"system":"리소스식별자(미정)","value":"bacillus subtilis"}],"code":{"coding":[{"system":"https://www.hira.or.kr","code":"E60500ACH","display":"bacillus subtilis"}]}}}}]}},"subject":{"reference":"Patient/10000000","resource":{"resourceType":"Patient","id":"10000000","meta":{"profile":["https://simplifier.net/myhealthway/StructureDefinition/PublicPatient"]},"identifier":[{"type":{"coding":[{"system":"http://myhealthway.go.kr(가칭)","code":"MHID"}]},"system":"미정","value":"10237551"},{"type":{"coding":[{"system":"http://terminology.hl7.org/CodeSystem/v2-0203","code":"NNKOR"}]},"system":"http://mois.go.kr/rnn","value":"0502184******"}],"name":[{"text":"김민선"}]}},"performer":[{"actor":{"reference":"Organization/16200026","resource":{"resourceType":"Organization","id":"16200026","identifier":[{"system":"리소스식별체계(미정)","value":"2e751906-bb36-4df9-9d7b-dbcfc4cfc313"}],"type":[{"coding":[{"system":"미정","code":"미정","display":"약국"}],"text":"약국"}],"name":"분당메디칼약국","address":[{"text":"경기도 성남시 분당구 돌마로"}]}}}],"daysSupply":{"value":90,"unit":"일","system":"http://unitsofmeasure.org","code":"d"},"whenPrepared":"2024-10-21","dosageInstruction":[{"text":"1캡슐","timing":{"repeat":{"extension":[{"url":"https://simplifier.net/myhealthway/StructureDefinition/TimingforPublicMedicationDispense","valueString":"1"}],"frequency":1,"period":1,"periodUnit":"d"}},"doseAndRate":[{"doseQuantity":{"value":1.0}}]}]}},{"resource":{"resourceType":"MedicationDispense","id":"16000027","meta":{"profile":["https://simplifier.net/myhealthway/StructureDefinition/PublicMedicationDispense"]},"identifier":[{"system":"리소스식별자(미정)","value":"66db2700-be8f-4a86-9e5d-acda93cc6b4f"}],"contained":[{"resourceType":"Organization","id":"16200027","identifier":[{"system":"리소스식별체계(미정)","value":"eed98fc4-0263-4f10-a1c1-196c86affec1"}],"type":[{"coding":[{"system":"미정","code":"미정","display":"약국"}],"text":"약국"}],"name":"분당메디칼약국","address":[{"text":"경기도 성남시 분당구 돌마로"}]}],"status":"completed","medicationReference":{"reference":"Medication/16100027","resource":{"resourceType":"Medication","id":"16100027","meta":{"profile":["https://simplifier.net/myhealthway/StructureDefinition/PublicMedication"]},"identifier":[{"system":"리소스식별자(미정)","value":"medication1"}],"contained":[{"resourceType":"Substance","id":"163000001","identifier":[{"system":"리소스식별자(미정)","value":"bacteria culture of Lactobacillus rhamnosus R0011 and Lactobacillus helveticus R0052"}]}],"code":{"coding":[{"system":"https://biz.kpis.or.kr/CodeSystem/kdcode","code":"659900030","display":"라시도필캡슐_(락토바실루스람노수스R0011균락토바실루스아시도필루스Roo52균 혼합배양물, 20mg/1캡슐)"}],"text":"라시도필캡슐_(락토바실루스람노수스R0011균락토바실루스아시도필루스Roo52균 혼합배양물, 20mg/1캡슐)"},"ingredient":[{"itemReference":{"reference":"Substance/163000001","resource":{"resourceType":"Substance","id":"163000001","identifier":[{"system":"리소스식별자(미정)","value":"bacteria culture of Lactobacillus rhamnosus R0011 and Lactobacillus helveticus R0052"}],"code":{"coding":[{"system":"https://www.hira.or.kr","code":"487401ACH","display":"bacteria culture of Lactobacillus rhamnosus R0011 and Lactobacillus helveticus R0052"}]}}}}]}},"subject":{"reference":"Patient/10000000","resource":{"resourceType":"Patient","id":"10000000","meta":{"profile":["https://simplifier.net/myhealthway/StructureDefinition/PublicPatient"]},"identifier":[{"type":{"coding":[{"system":"http://myhealthway.go.kr(가칭)","code":"MHID"}]},"system":"미정","value":"10237551"},{"type":{"coding":[{"system":"http://terminology.hl7.org/CodeSystem/v2-0203","code":"NNKOR"}]},"system":"http://mois.go.kr/rnn","value":"0502184******"}],"name":[{"text":"김민선"}]}},"performer":[{"actor":{"reference":"Organization/16200027","resource":{"resourceType":"Organization","id":"16200027","identifier":[{"system":"리소스식별체계(미정)","value":"eed98fc4-0263-4f10-a1c1-196c86affec1"}],"type":[{"coding":[{"system":"미정","code":"미정","display":"약국"}],"text":"약국"}],"name":"분당메디칼약국","address":[{"text":"경기도 성남시 분당구 돌마로"}]}}}],"daysSupply":{"value":90,"unit":"일","system":"http://unitsofmeasure.org","code":"d"},"whenPrepared":"2024-10-21","dosageInstruction":[{"text":"1캡슐","timing":{"repeat":{"extension":[{"url":"https://simplifier.net/myhealthway/StructureDefinition/TimingforPublicMedicationDispense","valueString":"1"}],"frequency":1,"period":1,"periodUnit":"d"}},"doseAndRate":[{"doseQuantity":{"value":1.0}}]}]}},{"resource":{"resourceType":"MedicationDispense","id":"16000028","meta":{"profile":["https://simplifier.net/myhealthway/StructureDefinition/PublicMedicationDispense"]},"identifier":[{"system":"리소스식별자(미정)","value":"8d49642f-71eb-4741-8780-d0c7b66d4719"}],"contained":[{"resourceType":"Organization","id":"16200028","identifier":[{"system":"리소스식별체계(미정)","value":"91f5cc55-cf54-45ea-b593-c672e66f44f2"}],"type":[{"coding":[{"system":"미정","code":"미정","display":"약국"}],"text":"약국"}],"name":"분당메디칼약국","address":[{"text":"경기도 성남시 분당구 돌마로"}]}],"status":"completed","medicationReference":{"reference":"Medication/16100028","resource":{"resourceType":"Medication","id":"16100028","meta":{"profile":["https://simplifier.net/myhealthway/StructureDefinition/PublicMedication"]},"identifier":[{"system":"리소스식별자(미정)","value":"medication1"}],"contained":[{"resourceType":"Substance","id":"163000001","identifier":[{"system":"리소스식별자(미정)","value":"γ-linolenic acid"}]}],"code":{"coding":[{"system":"https://biz.kpis.or.kr/CodeSystem/kdcode","code":"664600720","display":"에보프림연질캡슐(달맞이꽃종자유)_(0.45g/1캡슐)"}],"text":"에보프림연질캡슐(달맞이꽃종자유)_(0.45g/1캡슐)"},"ingredient":[{"itemReference":{"reference":"Substance/163000001","resource":{"resourceType":"Substance","id":"163000001","identifier":[{"system":"리소스식별자(미정)","value":"γ-linolenic acid"}],"code":{"coding":[{"system":"https://www.hira.or.kr","code":"251201ACS","display":"γ-linolenic acid"}]}}}}]}},"subject":{"reference":"Patient/10000000","resource":{"resourceType":"Patient","id":"10000000","meta":{"profile":["https://simplifier.net/myhealthway/StructureDefinition/PublicPatient"]},"identifier":[{"type":{"coding":[{"system":"http://myhealthway.go.kr(가칭)","code":"MHID"}]},"system":"미정","value":"10237551"},{"type":{"coding":[{"system":"http://terminology.hl7.org/CodeSystem/v2-0203","code":"NNKOR"}]},"system":"http://mois.go.kr/rnn","value":"0502184******"}],"name":[{"text":"김민선"}]}},"performer":[{"actor":{"reference":"Organization/16200028","resource":{"resourceType":"Organization","id":"16200028","identifier":[{"system":"리소스식별체계(미정)","value":"91f5cc55-cf54-45ea-b593-c672e66f44f2"}],"type":[{"coding":[{"system":"미정","code":"미정","display":"약국"}],"text":"약국"}],"name":"분당메디칼약국","address":[{"text":"경기도 성남시 분당구 돌마로"}]}}}],"daysSupply":{"value":90,"unit":"일","system":"http://unitsofmeasure.org","code":"d"},"whenPrepared":"2024-10-21","dosageInstruction":[{"text":"1캡슐","timing":{"repeat":{"extension":[{"url":"https://simplifier.net/myhealthway/StructureDefinition/TimingforPublicMedicationDispense","valueString":"2"}],"frequency":2,"period":1,"periodUnit":"d"}},"doseAndRate":[{"doseQuantity":{"value":2.0}}]}]}},{"resource":{"resourceType":"MedicationDispense","id":"16000029","meta":{"profile":["https://simplifier.net/myhealthway/StructureDefinition/PublicMedicationDispense"]},"identifier":[{"system":"리소스식별자(미정)","value":"5138c20c-8096-4cc3-b1f1-e865a84885e0"}],"contained":[{"resourceType":"Organization","id":"16200029","identifier":[{"system":"리소스식별체계(미정)","value":"12a492e1-471a-4f8d-b31d-ed83291c1c45"}],"type":[{"coding":[{"system":"미정","code":"미정","display":"약국"}],"text":"약국"}],"name":"분당메디칼약국","address":[{"text":"경기도 성남시 분당구 돌마로"}]}],"status":"completed","medicationReference":{"reference":"Medication/16100029","resource":{"resourceType":"Medication","id":"16100029","meta":{"profile":["https://simplifier.net/myhealthway/StructureDefinition/PublicMedication"]},"identifier":[{"system":"리소스식별자(미정)","value":"medication1"}],"contained":[{"resourceType":"Substance","id":"163000001","identifier":[{"system":"리소스식별자(미정)","value":"cholecalciferol concentrated powder (as vitamin D3)"}]}],"code":{"coding":[{"system":"https://biz.kpis.or.kr/CodeSystem/kdcode","code":"664602100","display":"디맥정(농축콜레칼시페롤과립)_(10mg/1정)"}],"text":"디맥정(농축콜레칼시페롤과립)_(10mg/1정)"},"ingredient":[{"itemReference":{"reference":"Substance/163000001","resource":{"resourceType":"Substance","id":"163000001","identifier":[{"system":"리소스식별자(미정)","value":"cholecalciferol concentrated powder (as vitamin D3)"}],"code":{"coding":[{"system":"https://www.hira.or.kr","code":"D07901ATB","display":"cholecalciferol concentrated powder (as vitamin D3)"}]}}}}]}},"subject":{"reference":"Patient/10000000","resource":{"resourceType":"Patient","id":"10000000","meta":{"profile":["https://simplifier.net/myhealthway/StructureDefinition/PublicPatient"]},"identifier":[{"type":{"coding":[{"system":"http://myhealthway.go.kr(가칭)","code":"MHID"}]},"system":"미정","value":"10237551"},{"type":{"coding":[{"system":"http://terminology.hl7.org/CodeSystem/v2-0203","code":"NNKOR"}]},"system":"http://mois.go.kr/rnn","value":"0502184******"}],"name":[{"text":"김민선"}]}},"performer":[{"actor":{"reference":"Organization/16200029","resource":{"resourceType":"Organization","id":"16200029","identifier":[{"system":"리소스식별체계(미정)","value":"12a492e1-471a-4f8d-b31d-ed83291c1c45"}],"type":[{"coding":[{"system":"미정","code":"미정","display":"약국"}],"text":"약국"}],"name":"분당메디칼약국","address":[{"text":"경기도 성남시 분당구 돌마로"}]}}}],"daysSupply":{"value":90,"unit":"일","system":"http://unitsofmeasure.org","code":"d"},"whenPrepared":"2024-10-21","dosageInstruction":[{"text":"1정","timing":{"repeat":{"extension":[{"url":"https://simplifier.net/myhealthway/StructureDefinition/TimingforPublicMedicationDispense","valueString":"1"}],"frequency":1,"period":1,"periodUnit":"d"}},"doseAndRate":[{"doseQuantity":{"value":1.0}}]}]}},{"resource":{"resourceType":"MedicationDispense","id":"16000031","meta":{"profile":["https://simplifier.net/myhealthway/StructureDefinition/PublicMedicationDispense"]},"identifier":[{"system":"리소스식별자(미정)","value":"623f69e5-dcc4-4f64-9445-a92f851c2f1b"}],"contained":[{"resourceType":"Organization","id":"16200031","identifier":[{"system":"리소스식별체계(미정)","value":"b91d991c-9b85-43a8-8d3b-b93861034416"}],"type":[{"coding":[{"system":"미정","code":"미정","display":"약국"}],"text":"약국"}],"name":"서울복음치과의원","address":[{"text":"서울특별시 영등포구 국제금융로"}]}],"status":"completed","medicationReference":{"reference":"Medication/16100031","resource":{"resourceType":"Medication","id":"16100031","meta":{"profile":["https://simplifier.net/myhealthway/StructureDefinition/PublicMedication"]},"identifier":[{"system":"리소스식별자(미정)","value":"medication1"}],"contained":[{"resourceType":"Substance","id":"163000001","identifier":[{"system":"리소스식별자(미정)","value":"epinephrine bitartrate (as epinephrine)"}]}],"code":{"coding":[{"system":"https://biz.kpis.or.kr/CodeSystem/kdcode","code":"625300030","display":"노보콜100주(카트리지)_(1.8mL)"}],"text":"노보콜100주(카트리지)_(1.8mL)"},"ingredient":[{"itemReference":{"reference":"Substance/163000001","resource":{"resourceType":"Substance","id":"163000001","identifier":[{"system":"리소스식별자(미정)","value":"epinephrine bitartrate (as epinephrine)"}],"code":{"coding":[{"system":"https://www.hira.or.kr","code":"314300BIJ","display":"epinephrine bitartrate (as epinephrine)"}]}}}}]}},"subject":{"reference":"Patient/10000000","resource":{"resourceType":"Patient","id":"10000000","meta":{"profile":["https://simplifier.net/myhealthway/StructureDefinition/PublicPatient"]},"identifier":[{"type":{"coding":[{"system":"http://myhealthway.go.kr(가칭)","code":"MHID"}]},"system":"미정","value":"10237551"},{"type":{"coding":[{"system":"http://terminology.hl7.org/CodeSystem/v2-0203","code":"NNKOR"}]},"system":"http://mois.go.kr/rnn","value":"0502184******"}],"name":[{"text":"김민선"}]}},"performer":[{"actor":{"reference":"Organization/16200031","resource":{"resourceType":"Organization","id":"16200031","identifier":[{"system":"리소스식별체계(미정)","value":"b91d991c-9b85-43a8-8d3b-b93861034416"}],"type":[{"coding":[{"system":"미정","code":"미정","display":"약국"}],"text":"약국"}],"name":"서울복음치과의원","address":[{"text":"서울특별시 영등포구 국제금융로"}]}}}],"daysSupply":{"value":1,"unit":"일","system":"http://unitsofmeasure.org","code":"d"},"whenPrepared":"2024-09-23","dosageInstruction":[{"text":"1.8mL/카트리지","timing":{"repeat":{"extension":[{"url":"https://simplifier.net/myhealthway/StructureDefinition/TimingforPublicMedicationDispense","valueString":"1"}],"frequency":1,"period":1,"periodUnit":"d"}},"doseAndRate":[{"doseQuantity":{"value":1.0}}]}]}},{"resource":{"resourceType":"MedicationDispense","id":"16000032","meta":{"profile":["https://simplifier.net/myhealthway/StructureDefinition/PublicMedicationDispense"]},"identifier":[{"system":"리소스식별자(미정)","value":"61037d11-7e6c-456e-b00d-a83ae7c09108"}],"contained":[{"resourceType":"Organization","id":"16200032","identifier":[{"system":"리소스식별체계(미정)","value":"4e615f68-aa02-46b2-b9ba-bbb10ae23e95"}],"type":[{"coding":[{"system":"미정","code":"미정","display":"약국"}],"text":"약국"}],"name":"서울복음치과의원","address":[{"text":"서울특별시 영등포구 국제금융로"}]}],"status":"completed","medicationReference":{"reference":"Medication/16100032","resource":{"resourceType":"Medication","id":"16100032","meta":{"profile":["https://simplifier.net/myhealthway/StructureDefinition/PublicMedication"]},"identifier":[{"system":"리소스식별자(미정)","value":"medication1"}],"contained":[{"resourceType":"Substance","id":"163000001","identifier":[{"system":"리소스식별자(미정)","value":"epinephrine bitartrate (as epinephrine)"}]}],"code":{"coding":[{"system":"https://biz.kpis.or.kr/CodeSystem/kdcode","code":"670603440","display":"휴온스리도카인염산염수화물-에피네프린주(1:100,000)[수출명:메디카인주(1:100,000),MEDICAINEINJ.2%(1:100,000),I.M2%,KWANGMYUNGLidocaineHCI·EpinephrineInj.(1:100,000),doton(1:100,000)]_(1.8mL)"}],"text":"휴온스리도카인염산염수화물-에피네프린주(1:100,000)[수출명:메디카인주(1:100,000),MEDICAINEINJ.2%(1:100,000),I.M2%,KWANGMYUNGLidocaineHCI·EpinephrineInj.(1:100,000),doton(1:100,000)]_(1.8mL)"},"ingredient":[{"itemReference":{"reference":"Substance/163000001","resource":{"resourceType":"Substance","id":"163000001","identifier":[{"system":"리소스식별자(미정)","value":"epinephrine bitartrate (as epinephrine)"}],"code":{"coding":[{"system":"https://www.hira.or.kr","code":"314300BIJ","display":"epinephrine bitartrate (as epinephrine)"}]}}}}]}},"subject":{"reference":"Patient/10000000","resource":{"resourceType":"Patient","id":"10000000","meta":{"profile":["https://simplifier.net/myhealthway/StructureDefinition/PublicPatient"]},"identifier":[{"type":{"coding":[{"system":"http://myhealthway.go.kr(가칭)","code":"MHID"}]},"system":"미정","value":"10237551"},{"type":{"coding":[{"system":"http://terminology.hl7.org/CodeSystem/v2-0203","code":"NNKOR"}]},"system":"http://mois.go.kr/rnn","value":"0502184******"}],"name":[{"text":"김민선"}]}},"performer":[{"actor":{"reference":"Organization/16200032","resource":{"resourceType":"Organization","id":"16200032","identifier":[{"system":"리소스식별체계(미정)","value":"4e615f68-aa02-46b2-b9ba-bbb10ae23e95"}],"type":[{"coding":[{"system":"미정","code":"미정","display":"약국"}],"text":"약국"}],"name":"서울복음치과의원","address":[{"text":"서울특별시 영등포구 국제금융로"}]}}}],"daysSupply":{"value":1,"unit":"일","system":"http://unitsofmeasure.org","code":"d"},"whenPrepared":"2024-09-19","dosageInstruction":[{"text":"1.8mL/앰플","timing":{"repeat":{"extension":[{"url":"https://simplifier.net/myhealthway/StructureDefinition/TimingforPublicMedicationDispense","valueString":"1"}],"frequency":1,"period":1,"periodUnit":"d"}},"doseAndRate":[{"doseQuantity":{"value":1.0}}]}]}},{"resource":{"resourceType":"MedicationDispense","id":"16000033","meta":{"profile":["https://simplifier.net/myhealthway/StructureDefinition/PublicMedicationDispense"]},"identifier":[{"system":"리소스식별자(미정)","value":"8292fe3c-128f-478b-a52c-04df8ac2862e"}],"contained":[{"resourceType":"Organization","id":"16200033","identifier":[{"system":"리소스식별체계(미정)","value":"c09f708b-eeff-4e4f-9eab-74e0a6e6b5e2"}],"type":[{"coding":[{"system":"미정","code":"미정","display":"약국"}],"text":"약국"}],"name":"서울복음치과의원","address":[{"text":"서울특별시 영등포구 국제금융로"}]}],"status":"completed","medicationReference":{"reference":"Medication/16100033","resource":{"resourceType":"Medication","id":"16100033","meta":{"profile":["https://simplifier.net/myhealthway/StructureDefinition/PublicMedication"]},"identifier":[{"system":"리소스식별자(미정)","value":"medication1"}],"contained":[{"resourceType":"Substance","id":"163000001","identifier":[{"system":"리소스식별자(미정)","value":"epinephrine bitartrate (as epinephrine)"}]}],"code":{"coding":[{"system":"https://biz.kpis.or.kr/CodeSystem/kdcode","code":"670603440","display":"휴온스리도카인염산염수화물-에피네프린주(1:100,000)[수출명:메디카인주(1:100,000),MEDICAINEINJ.2%(1:100,000),I.M2%,KWANGMYUNGLidocaineHCI·EpinephrineInj.(1:100,000),doton(1:100,000)]_(1.8mL)"}],"text":"휴온스리도카인염산염수화물-에피네프린주(1:100,000)[수출명:메디카인주(1:100,000),MEDICAINEINJ.2%(1:100,000),I.M2%,KWANGMYUNGLidocaineHCI·EpinephrineInj.(1:100,000),doton(1:100,000)]_(1.8mL)"},"ingredient":[{"itemReference":{"reference":"Substance/163000001","resource":{"resourceType":"Substance","id":"163000001","identifier":[{"system":"리소스식별자(미정)","value":"epinephrine bitartrate (as epinephrine)"}],"code":{"coding":[{"system":"https://www.hira.or.kr","code":"314300BIJ","display":"epinephrine bitartrate (as epinephrine)"}]}}}}]}},"subject":{"reference":"Patient/10000000","resource":{"resourceType":"Patient","id":"10000000","meta":{"profile":["https://simplifier.net/myhealthway/StructureDefinition/PublicPatient"]},"identifier":[{"type":{"coding":[{"system":"http://myhealthway.go.kr(가칭)","code":"MHID"}]},"system":"미정","value":"10237551"},{"type":{"coding":[{"system":"http://terminology.hl7.org/CodeSystem/v2-0203","code":"NNKOR"}]},"system":"http://mois.go.kr/rnn","value":"0502184******"}],"name":[{"text":"김민선"}]}},"performer":[{"actor":{"reference":"Organization/16200033","resource":{"resourceType":"Organization","id":"16200033","identifier":[{"system":"리소스식별체계(미정)","value":"c09f708b-eeff-4e4f-9eab-74e0a6e6b5e2"}],"type":[{"coding":[{"system":"미정","code":"미정","display":"약국"}],"text":"약국"}],"name":"서울복음치과의원","address":[{"text":"서울특별시 영등포구 국제금융로"}]}}}],"daysSupply":{"value":1,"unit":"일","system":"http://unitsofmeasure.org","code":"d"},"whenPrepared":"2024-09-09","dosageInstruction":[{"text":"1.8mL/앰플","timing":{"repeat":{"extension":[{"url":"https://simplifier.net/myhealthway/StructureDefinition/TimingforPublicMedicationDispense","valueString":"1"}],"frequency":1,"period":1,"periodUnit":"d"}},"doseAndRate":[{"doseQuantity":{"value":1.0}}]}]}},{"resource":{"resourceType":"MedicationDispense","id":"16000034","meta":{"profile":["https://simplifier.net/myhealthway/StructureDefinition/PublicMedicationDispense"]},"identifier":[{"system":"리소스식별자(미정)","value":"97221201-0657-4fdd-825f-96a4190a19b8"}],"contained":[{"resourceType":"Organization","id":"16200034","identifier":[{"system":"리소스식별체계(미정)","value":"11f205e7-78a5-448c-98a6-8d6c60979125"}],"type":[{"coding":[{"system":"미정","code":"미정","display":"약국"}],"text":"약국"}],"name":"가까운대학 약국","address":[{"text":"경기도 성남시 분당구 돌마로"}]}],"status":"completed","medicationReference":{"reference":"Medication/16100034","resource":{"resourceType":"Medication","id":"16100034","meta":{"profile":["https://simplifier.net/myhealthway/StructureDefinition/PublicMedication"]},"identifier":[{"system":"리소스식별자(미정)","value":"medication1"}],"contained":[{"resourceType":"Substance","id":"163000001","identifier":[{"system":"리소스식별자(미정)","value":"bepotastine besilate"}]}],"code":{"coding":[{"system":"https://biz.kpis.or.kr/CodeSystem/kdcode","code":"626500960","display":"투리온정(베포타스틴베실산염)_(10mg/1정)"}],"text":"투리온정(베포타스틴베실산염)_(10mg/1정)"},"ingredient":[{"itemReference":{"reference":"Substance/163000001","resource":{"resourceType":"Substance","id":"163000001","identifier":[{"system":"리소스식별자(미정)","value":"bepotastine besilate"}],"code":{"coding":[{"system":"https://www.hira.or.kr","code":"453902ATB","display":"bepotastine besilate"}]}}}}]}},"subject":{"reference":"Patient/10000000","resource":{"resourceType":"Patient","id":"10000000","meta":{"profile":["https://simplifier.net/myhealthway/StructureDefinition/PublicPatient"]},"identifier":[{"type":{"coding":[{"system":"http://myhealthway.go.kr(가칭)","code":"MHID"}]},"system":"미정","value":"10237551"},{"type":{"coding":[{"system":"http://terminology.hl7.org/CodeSystem/v2-0203","code":"NNKOR"}]},"system":"http://mois.go.kr/rnn","value":"0502184******"}],"name":[{"text":"김민선"}]}},"performer":[{"actor":{"reference":"Organization/16200034","resource":{"resourceType":"Organization","id":"16200034","identifier":[{"system":"리소스식별체계(미정)","value":"11f205e7-78a5-448c-98a6-8d6c60979125"}],"type":[{"coding":[{"system":"미정","code":"미정","display":"약국"}],"text":"약국"}],"name":"가까운대학 약국","address":[{"text":"경기도 성남시 분당구 돌마로"}]}}}],"daysSupply":{"value":90,"unit":"일","system":"http://unitsofmeasure.org","code":"d"},"whenPrepared":"2024-07-29","dosageInstruction":[{"text":"1정","timing":{"repeat":{"extension":[{"url":"https://simplifier.net/myhealthway/StructureDefinition/TimingforPublicMedicationDispense","valueString":"1"}],"frequency":1,"period":1,"periodUnit":"d"}},"doseAndRate":[{"doseQuantity":{"value":1.0}}]}]}},{"resource":{"resourceType":"MedicationDispense","id":"16000035","meta":{"profile":["https://simplifier.net/myhealthway/StructureDefinition/PublicMedicationDispense"]},"identifier":[{"system":"리소스식별자(미정)","value":"92431ead-69bf-4f0f-94c7-ef6571dc10f7"}],"contained":[{"resourceType":"Organization","id":"16200035","identifier":[{"system":"리소스식별체계(미정)","value":"b0c7b255-c7ed-48ec-b6ce-1741011ae75e"}],"type":[{"coding":[{"system":"미정","code":"미정","display":"약국"}],"text":"약국"}],"name":"가까운대학 약국","address":[{"text":"경기도 성남시 분당구 돌마로"}]}],"status":"completed","medicationReference":{"reference":"Medication/16100035","resource":{"resourceType":"Medication","id":"16100035","meta":{"profile":["https://simplifier.net/myhealthway/StructureDefinition/PublicMedication"]},"identifier":[{"system":"리소스식별자(미정)","value":"medication1"}],"contained":[{"resourceType":"Substance","id":"163000001","identifier":[{"system":"리소스식별자(미정)","value":"tacrolimus hydrate (as tacrolimus)"}]}],"code":{"coding":[{"system":"https://biz.kpis.or.kr/CodeSystem/kdcode","code":"626700112","display":"프로토픽연고0.1%(타크로리무스수화물)_(30.6mg/30g)"}],"text":"프로토픽연고0.1%(타크로리무스수화물)_(30.6mg/30g)"},"ingredient":[{"itemReference":{"reference":"Substance/163000001","resource":{"resourceType":"Substance","id":"163000001","identifier":[{"system":"리소스식별자(미정)","value":"tacrolimus hydrate (as tacrolimus)"}],"code":{"coding":[{"system":"https://www.hira.or.kr","code":"426333COM","display":"tacrolimus hydrate (as tacrolimus)"}]}}}}]}},"subject":{"reference":"Patient/10000000","resource":{"resourceType":"Patient","id":"10000000","meta":{"profile":["https://simplifier.net/myhealthway/StructureDefinition/PublicPatient"]},"identifier":[{"type":{"coding":[{"system":"http://myhealthway.go.kr(가칭)","code":"MHID"}]},"system":"미정","value":"10237551"},{"type":{"coding":[{"system":"http://terminology.hl7.org/CodeSystem/v2-0203","code":"NNKOR"}]},"system":"http://mois.go.kr/rnn","value":"0502184******"}],"name":[{"text":"김민선"}]}},"performer":[{"actor":{"reference":"Organization/16200035","resource":{"resourceType":"Organization","id":"16200035","identifier":[{"system":"리소스식별체계(미정)","value":"b0c7b255-c7ed-48ec-b6ce-1741011ae75e"}],"type":[{"coding":[{"system":"미정","code":"미정","display":"약국"}],"text":"약국"}],"name":"가까운대학 약국","address":[{"text":"경기도 성남시 분당구 돌마로"}]}}}],"daysSupply":{"value":1,"unit":"일","system":"http://unitsofmeasure.org","code":"d"},"whenPrepared":"2024-07-29","dosageInstruction":[{"text":"30g/개","timing":{"repeat":{"extension":[{"url":"https://simplifier.net/myhealthway/StructureDefinition/TimingforPublicMedicationDispense","valueString":"1"}],"frequency":1,"period":1,"periodUnit":"d"}},"doseAndRate":[{"doseQuantity":{"value":3.0}}]}]}},{"resource":{"resourceType":"MedicationDispense","id":"16000036","meta":{"profile":["https://simplifier.net/myhealthway/StructureDefinition/PublicMedicationDispense"]},"identifier":[{"system":"리소스식별자(미정)","value":"344974e3-ed1b-4c36-899b-934735da66c6"}],"contained":[{"resourceType":"Organization","id":"16200036","identifier":[{"system":"리소스식별체계(미정)","value":"58609689-6c43-421d-bc5a-f6aec18b360e"}],"type":[{"coding":[{"system":"미정","code":"미정","display":"약국"}],"text":"약국"}],"name":"가까운대학 약국","address":[{"text":"경기도 성남시 분당구 돌마로"}]}],"status":"completed","medicationReference":{"reference":"Medication/16100036","resource":{"resourceType":"Medication","id":"16100036","meta":{"profile":["https://simplifier.net/myhealthway/StructureDefinition/PublicMedication"]},"identifier":[{"system":"리소스식별자(미정)","value":"medication1"}],"contained":[{"resourceType":"Substance","id":"163000001","identifier":[{"system":"리소스식별자(미정)","value":"desoxymethasone"}]}],"code":{"coding":[{"system":"https://biz.kpis.or.kr/CodeSystem/kdcode","code":"643200104","display":"데타손연고0.25%(데속시메타손)_(75mg/30g)"}],"text":"데타손연고0.25%(데속시메타손)_(75mg/30g)"},"ingredient":[{"itemReference":{"reference":"Substance/163000001","resource":{"resourceType":"Substance","id":"163000001","identifier":[{"system":"리소스식별자(미정)","value":"desoxymethasone"}],"code":{"coding":[{"system":"https://www.hira.or.kr","code":"141634COM","display":"desoxymethasone"}]}}}}]}},"subject":{"reference":"Patient/10000000","resource":{"resourceType":"Patient","id":"10000000","meta":{"profile":["https://simplifier.net/myhealthway/StructureDefinition/PublicPatient"]},"identifier":[{"type":{"coding":[{"system":"http://myhealthway.go.kr(가칭)","code":"MHID"}]},"system":"미정","value":"10237551"},{"type":{"coding":[{"system":"http://terminology.hl7.org/CodeSystem/v2-0203","code":"NNKOR"}]},"system":"http://mois.go.kr/rnn","value":"0502184******"}],"name":[{"text":"김민선"}]}},"performer":[{"actor":{"reference":"Organization/16200036","resource":{"resourceType":"Organization","id":"16200036","identifier":[{"system":"리소스식별체계(미정)","value":"58609689-6c43-421d-bc5a-f6aec18b360e"}],"type":[{"coding":[{"system":"미정","code":"미정","display":"약국"}],"text":"약국"}],"name":"가까운대학 약국","address":[{"text":"경기도 성남시 분당구 돌마로"}]}}}],"daysSupply":{"value":1,"unit":"일","system":"http://unitsofmeasure.org","code":"d"},"whenPrepared":"2024-07-29","dosageInstruction":[{"text":"30g/개","timing":{"repeat":{"extension":[{"url":"https://simplifier.net/myhealthway/StructureDefinition/TimingforPublicMedicationDispense","valueString":"1"}],"frequency":1,"period":1,"periodUnit":"d"}},"doseAndRate":[{"doseQuantity":{"value":1.0}}]}]}},{"resource":{"resourceType":"MedicationDispense","id":"16000037","meta":{"profile":["https://simplifier.net/myhealthway/StructureDefinition/PublicMedicationDispense"]},"identifier":[{"system":"리소스식별자(미정)","value":"e33e6987-baa4-4068-8677-6fc3d984a356"}],"contained":[{"resourceType":"Organization","id":"16200037","identifier":[{"system":"리소스식별체계(미정)","value":"ce5eafb4-99f0-4897-8a69-329407ac6c8e"}],"type":[{"coding":[{"system":"미정","code":"미정","display":"약국"}],"text":"약국"}],"name":"가까운대학 약국","address":[{"text":"경기도 성남시 분당구 돌마로"}]}],"status":"completed","medicationReference":{"reference":"Medication/16100037","resource":{"resourceType":"Medication","id":"16100037","meta":{"profile":["https://simplifier.net/myhealthway/StructureDefinition/PublicMedication"]},"identifier":[{"system":"리소스식별자(미정)","value":"medication1"}],"contained":[{"resourceType":"Substance","id":"163000001","identifier":[{"system":"리소스식별자(미정)","value":"fluticasone propionate"}]}],"code":{"coding":[{"system":"https://biz.kpis.or.kr/CodeSystem/kdcode","code":"650001911","display":"큐티베이트크림(플루티카손프로피오네이트(미분화))_(7.5mg/15g)"}],"text":"큐티베이트크림(플루티카손프로피오네이트(미분화))_(7.5mg/15g)"},"ingredient":[{"itemReference":{"reference":"Substance/163000001","resource":{"resourceType":"Substance","id":"163000001","identifier":[{"system":"리소스식별자(미정)","value":"fluticasone propionate"}],"code":{"coding":[{"system":"https://www.hira.or.kr","code":"162234CCM","display":"fluticasone propionate"}]}}}}]}},"subject":{"reference":"Patient/10000000","resource":{"resourceType":"Patient","id":"10000000","meta":{"profile":["https://simplifier.net/myhealthway/StructureDefinition/PublicPatient"]},"identifier":[{"type":{"coding":[{"system":"http://myhealthway.go.kr(가칭)","code":"MHID"}]},"system":"미정","value":"10237551"},{"type":{"coding":[{"system":"http://terminology.hl7.org/CodeSystem/v2-0203","code":"NNKOR"}]},"system":"http://mois.go.kr/rnn","value":"0502184******"}],"name":[{"text":"김민선"}]}},"performer":[{"actor":{"reference":"Organization/16200037","resource":{"resourceType":"Organization","id":"16200037","identifier":[{"system":"리소스식별체계(미정)","value":"ce5eafb4-99f0-4897-8a69-329407ac6c8e"}],"type":[{"coding":[{"system":"미정","code":"미정","display":"약국"}],"text":"약국"}],"name":"가까운대학 약국","address":[{"text":"경기도 성남시 분당구 돌마로"}]}}}],"daysSupply":{"value":1,"unit":"일","system":"http://unitsofmeasure.org","code":"d"},"whenPrepared":"2024-07-29","dosageInstruction":[{"text":"15g/개","timing":{"repeat":{"extension":[{"url":"https://simplifier.net/myhealthway/StructureDefinition/TimingforPublicMedicationDispense","valueString":"1"}],"frequency":1,"period":1,"periodUnit":"d"}},"doseAndRate":[{"doseQuantity":{"value":3.0}}]}]}},{"resource":{"resourceType":"MedicationDispense","id":"16000038","meta":{"profile":["https://simplifier.net/myhealthway/StructureDefinition/PublicMedicationDispense"]},"identifier":[{"system":"리소스식별자(미정)","value":"d230f793-6a24-481c-a830-31543e928531"}],"contained":[{"resourceType":"Organization","id":"16200038","identifier":[{"system":"리소스식별체계(미정)","value":"0e210cdb-a8ec-4189-8265-4825b1c70fc1"}],"type":[{"coding":[{"system":"미정","code":"미정","display":"약국"}],"text":"약국"}],"name":"가까운대학 약국","address":[{"text":"경기도 성남시 분당구 돌마로"}]}],"status":"completed","medicationReference":{"reference":"Medication/16100038","resource":{"resourceType":"Medication","id":"16100038","meta":{"profile":["https://simplifier.net/myhealthway/StructureDefinition/PublicMedication"]},"identifier":[{"system":"리소스식별자(미정)","value":"medication1"}],"contained":[{"resourceType":"Substance","id":"163000001","identifier":[{"system":"리소스식별자(미정)","value":"bacteria culture of Lactobacillus rhamnosus R0011 and Lactobacillus helveticus R0052"}]}],"code":{"coding":[{"system":"https://biz.kpis.or.kr/CodeSystem/kdcode","code":"659900030","display":"라시도필캡슐_(락토바실루스람노수스R0011균락토바실루스아시도필루스Roo52균 혼합배양물, 20mg/1캡슐)"}],"text":"라시도필캡슐_(락토바실루스람노수스R0011균락토바실루스아시도필루스Roo52균 혼합배양물, 20mg/1캡슐)"},"ingredient":[{"itemReference":{"reference":"Substance/163000001","resource":{"resourceType":"Substance","id":"163000001","identifier":[{"system":"리소스식별자(미정)","value":"bacteria culture of Lactobacillus rhamnosus R0011 and Lactobacillus helveticus R0052"}],"code":{"coding":[{"system":"https://www.hira.or.kr","code":"487401ACH","display":"bacteria culture of Lactobacillus rhamnosus R0011 and Lactobacillus helveticus R0052"}]}}}}]}},"subject":{"reference":"Patient/10000000","resource":{"resourceType":"Patient","id":"10000000","meta":{"profile":["https://simplifier.net/myhealthway/StructureDefinition/PublicPatient"]},"identifier":[{"type":{"coding":[{"system":"http://myhealthway.go.kr(가칭)","code":"MHID"}]},"system":"미정","value":"10237551"},{"type":{"coding":[{"system":"http://terminology.hl7.org/CodeSystem/v2-0203","code":"NNKOR"}]},"system":"http://mois.go.kr/rnn","value":"0502184******"}],"name":[{"text":"김민선"}]}},"performer":[{"actor":{"reference":"Organization/16200038","resource":{"resourceType":"Organization","id":"16200038","identifier":[{"system":"리소스식별체계(미정)","value":"0e210cdb-a8ec-4189-8265-4825b1c70fc1"}],"type":[{"coding":[{"system":"미정","code":"미정","display":"약국"}],"text":"약국"}],"name":"가까운대학 약국","address":[{"text":"경기도 성남시 분당구 돌마로"}]}}}],"daysSupply":{"value":90,"unit":"일","system":"http://unitsofmeasure.org","code":"d"},"whenPrepared":"2024-07-29","dosageInstruction":[{"text":"1캡슐","timing":{"repeat":{"extension":[{"url":"https://simplifier.net/myhealthway/StructureDefinition/TimingforPublicMedicationDispense","valueString":"1"}],"frequency":1,"period":1,"periodUnit":"d"}},"doseAndRate":[{"doseQuantity":{"value":1.0}}]}]}},{"resource":{"resourceType":"Medication","id":"16100001","meta":{"profile":["https://simplifier.net/myhealthway/StructureDefinition/PublicMedication"]},"identifier":[{"system":"리소스식별자(미정)","value":"medication1"}],"contained":[{"resourceType":"Substance","id":"163000001","identifier":[{"system":"리소스식별자(미정)","value":"cefuroxime axetil (as cefuroxime)"}],"code":{"coding":[{"system":"https://www.hira.or.kr","code":"128903ATB","display":"cefuroxime axetil (as cefuroxime)"}]}}],"code":{"coding":[{"system":"https://biz.kpis.or.kr/CodeSystem/kdcode","code":"643501240","display":"세프틸정250밀리그램(세푸록심악세틸)_(0.30072g/1정)"}],"text":"세프틸정250밀리그램(세푸록심악세틸)_(0.30072g/1정)"},"ingredient":[{"itemReference":{"reference":"Substance/163000001","resource":{"resourceType":"Substance","id":"163000001","identifier":[{"system":"리소스식별자(미정)","value":"cefuroxime axetil (as cefuroxime)"}],"code":{"coding":[{"system":"https://www.hira.or.kr","code":"128903ATB","display":"cefuroxime axetil (as cefuroxime)"}]}}}}]}},{"resource":{"resourceType":"Medication","id":"16100002","meta":{"profile":["https://simplifier.net/myhealthway/StructureDefinition/PublicMedication"]},"identifier":[{"system":"리소스식별자(미정)","value":"medication1"}],"contained":[{"resourceType":"Substance","id":"163000001","identifier":[{"system":"리소스식별자(미정)","value":"minocycline hydrochloride"}],"code":{"coding":[{"system":"https://www.hira.or.kr","code":"195903ACH","display":"minocycline hydrochloride"}]}}],"code":{"coding":[{"system":"https://biz.kpis.or.kr/CodeSystem/kdcode","code":"644700590","display":"미노씬캡슐50mg(미노사이클린염산염)_(50mg/1캡슐)"}],"text":"미노씬캡슐50mg(미노사이클린염산염)_(50mg/1캡슐)"},"ingredient":[{"itemReference":{"reference":"Substance/163000001","resource":{"resourceType":"Substance","id":"163000001","identifier":[{"system":"리소스식별자(미정)","value":"minocycline hydrochloride"}],"code":{"coding":[{"system":"https://www.hira.or.kr","code":"195903ACH","display":"minocycline hydrochloride"}]}}}}]}},{"resource":{"resourceType":"Medication","id":"16100003","meta":{"profile":["https://simplifier.net/myhealthway/StructureDefinition/PublicMedication"]},"identifier":[{"system":"리소스식별자(미정)","value":"medication1"}],"contained":[{"resourceType":"Substance","id":"163000001","identifier":[{"system":"리소스식별자(미정)","value":"artemisiae argyi folium 95% ethanol ext.(20→1)"}],"code":{"coding":[{"system":"https://www.hira.or.kr","code":"430101ATB","display":"artemisiae argyi folium 95% ethanol ext.(20→1)"}]}}],"code":{"coding":[{"system":"https://biz.kpis.or.kr/CodeSystem/kdcode","code":"693900190","display":"스토마정(애엽95%에탄올연조엑스(20→1))_(60mg/1정)"}],"text":"스토마정(애엽95%에탄올연조엑스(20→1))_(60mg/1정)"},"ingredient":[{"itemReference":{"reference":"Substance/163000001","resource":{"resourceType":"Substance","id":"163000001","identifier":[{"system":"리소스식별자(미정)","value":"artemisiae argyi folium 95% ethanol ext.(20→1)"}],"code":{"coding":[{"system":"https://www.hira.or.kr","code":"430101ATB","display":"artemisiae argyi folium 95% ethanol ext.(20→1)"}]}}}}]}},{"resource":{"resourceType":"Medication","id":"16100004","meta":{"profile":["https://simplifier.net/myhealthway/StructureDefinition/PublicMedication"]},"identifier":[{"system":"리소스식별자(미정)","value":"medication1"}],"contained":[{"resourceType":"Substance","id":"163000001","identifier":[{"system":"리소스식별자(미정)","value":"nadifloxacin"}],"code":{"coding":[{"system":"https://www.hira.or.kr","code":"567201CCM","display":"nadifloxacin"}]}}],"code":{"coding":[{"system":"https://biz.kpis.or.kr/CodeSystem/kdcode","code":"ZA0000004"}]},"ingredient":[{"itemReference":{"reference":"Substance/163000001","resource":{"resourceType":"Substance","id":"163000001","identifier":[{"system":"리소스식별자(미정)","value":"nadifloxacin"}],"code":{"coding":[{"system":"https://www.hira.or.kr","code":"567201CCM","display":"nadifloxacin"}]}}}}]}},{"resource":{"resourceType":"Medication","id":"16100005","meta":{"profile":["https://simplifier.net/myhealthway/StructureDefinition/PublicMedication"]},"identifier":[{"system":"리소스식별자(미정)","value":"medication1"}],"contained":[{"resourceType":"Substance","id":"163000001","identifier":[{"system":"리소스식별자(미정)","value":"prednicarbate"}],"code":{"coding":[{"system":"https://www.hira.or.kr","code":"216935CCM","display":"prednicarbate"}]}}],"code":{"coding":[{"system":"https://biz.kpis.or.kr/CodeSystem/kdcode","code":"645702491","display":"삼아리도스타크림(프레드니카르베이트)_(50mg/20g)"}],"text":"삼아리도스타크림(프레드니카르베이트)_(50mg/20g)"},"ingredient":[{"itemReference":{"reference":"Substance/163000001","resource":{"resourceType":"Substance","id":"163000001","identifier":[{"system":"리소스식별자(미정)","value":"prednicarbate"}],"code":{"coding":[{"system":"https://www.hira.or.kr","code":"216935CCM","display":"prednicarbate"}]}}}}]}},{"resource":{"resourceType":"Medication","id":"16100006","meta":{"profile":["https://simplifier.net/myhealthway/StructureDefinition/PublicMedication"]},"identifier":[{"system":"리소스식별자(미정)","value":"medication1"}],"contained":[{"resourceType":"Substance","id":"163000001","identifier":[{"system":"리소스식별자(미정)","value":"bacteria culture of Lactobacillus rhamnosus R0011 and Lactobacillus helveticus R0052"}],"code":{"coding":[{"system":"https://www.hira.or.kr","code":"487401ACH","display":"bacteria culture of Lactobacillus rhamnosus R0011 and Lactobacillus helveticus R0052"}]}}],"code":{"coding":[{"system":"https://biz.kpis.or.kr/CodeSystem/kdcode","code":"659900030","display":"라시도필캡슐_(락토바실루스람노수스R0011균락토바실루스아시도필루스Roo52균 혼합배양물, 20mg/1캡슐)"}],"text":"라시도필캡슐_(락토바실루스람노수스R0011균락토바실루스아시도필루스Roo52균 혼합배양물, 20mg/1캡슐)"},"ingredient":[{"itemReference":{"reference":"Substance/163000001","resource":{"resourceType":"Substance","id":"163000001","identifier":[{"system":"리소스식별자(미정)","value":"bacteria culture of Lactobacillus rhamnosus R0011 and Lactobacillus helveticus R0052"}],"code":{"coding":[{"system":"https://www.hira.or.kr","code":"487401ACH","display":"bacteria culture of Lactobacillus rhamnosus R0011 and Lactobacillus helveticus R0052"}]}}}}]}},{"resource":{"resourceType":"Medication","id":"16100007","meta":{"profile":["https://simplifier.net/myhealthway/StructureDefinition/PublicMedication"]},"identifier":[{"system":"리소스식별자(미정)","value":"medication1"}],"contained":[{"resourceType":"Substance","id":"163000001","identifier":[{"system":"리소스식별자(미정)","value":"γ-linolenic acid"}],"code":{"coding":[{"system":"https://www.hira.or.kr","code":"251201ACS","display":"γ-linolenic acid"}]}}],"code":{"coding":[{"system":"https://biz.kpis.or.kr/CodeSystem/kdcode","code":"664600720","display":"에보프림연질캡슐(달맞이꽃종자유)_(0.45g/1캡슐)"}],"text":"에보프림연질캡슐(달맞이꽃종자유)_(0.45g/1캡슐)"},"ingredient":[{"itemReference":{"reference":"Substance/163000001","resource":{"resourceType":"Substance","id":"163000001","identifier":[{"system":"리소스식별자(미정)","value":"γ-linolenic acid"}],"code":{"coding":[{"system":"https://www.hira.or.kr","code":"251201ACS","display":"γ-linolenic acid"}]}}}}]}},{"resource":{"resourceType":"Medication","id":"16100008","meta":{"profile":["https://simplifier.net/myhealthway/StructureDefinition/PublicMedication"]},"identifier":[{"system":"리소스식별자(미정)","value":"medication1"}],"contained":[{"resourceType":"Substance","id":"163000001","identifier":[{"system":"리소스식별자(미정)","value":"bepotastine besilate"}],"code":{"coding":[{"system":"https://www.hira.or.kr","code":"453902ATB","display":"bepotastine besilate"}]}}],"code":{"coding":[{"system":"https://biz.kpis.or.kr/CodeSystem/kdcode","code":"626500960","display":"투리온정(베포타스틴베실산염)_(10mg/1정)"}],"text":"투리온정(베포타스틴베실산염)_(10mg/1정)"},"ingredient":[{"itemReference":{"reference":"Substance/163000001","resource":{"resourceType":"Substance","id":"163000001","identifier":[{"system":"리소스식별자(미정)","value":"bepotastine besilate"}],"code":{"coding":[{"system":"https://www.hira.or.kr","code":"453902ATB","display":"bepotastine besilate"}]}}}}]}},{"resource":{"resourceType":"Medication","id":"16100009","meta":{"profile":["https://simplifier.net/myhealthway/StructureDefinition/PublicMedication"]},"identifier":[{"system":"리소스식별자(미정)","value":"medication1"}],"contained":[{"resourceType":"Substance","id":"163000001","identifier":[{"system":"리소스식별자(미정)","value":"tacrolimus hydrate (as tacrolimus)"}],"code":{"coding":[{"system":"https://www.hira.or.kr","code":"426333COM","display":"tacrolimus hydrate (as tacrolimus)"}]}}],"code":{"coding":[{"system":"https://biz.kpis.or.kr/CodeSystem/kdcode","code":"626700112","display":"프로토픽연고0.1%(타크로리무스수화물)_(30.6mg/30g)"}],"text":"프로토픽연고0.1%(타크로리무스수화물)_(30.6mg/30g)"},"ingredient":[{"itemReference":{"reference":"Substance/163000001","resource":{"resourceType":"Substance","id":"163000001","identifier":[{"system":"리소스식별자(미정)","value":"tacrolimus hydrate (as tacrolimus)"}],"code":{"coding":[{"system":"https://www.hira.or.kr","code":"426333COM","display":"tacrolimus hydrate (as tacrolimus)"}]}}}}]}},{"resource":{"resourceType":"Medication","id":"16100010","meta":{"profile":["https://simplifier.net/myhealthway/StructureDefinition/PublicMedication"]},"identifier":[{"system":"리소스식별자(미정)","value":"medication1"}],"contained":[{"resourceType":"Substance","id":"163000001","identifier":[{"system":"리소스식별자(미정)","value":"desoxymethasone"}],"code":{"coding":[{"system":"https://www.hira.or.kr","code":"141634COM","display":"desoxymethasone"}]}}],"code":{"coding":[{"system":"https://biz.kpis.or.kr/CodeSystem/kdcode","code":"643200104","display":"데타손연고0.25%(데속시메타손)_(75mg/30g)"}],"text":"데타손연고0.25%(데속시메타손)_(75mg/30g)"},"ingredient":[{"itemReference":{"reference":"Substance/163000001","resource":{"resourceType":"Substance","id":"163000001","identifier":[{"system":"리소스식별자(미정)","value":"desoxymethasone"}],"code":{"coding":[{"system":"https://www.hira.or.kr","code":"141634COM","display":"desoxymethasone"}]}}}}]}},{"resource":{"resourceType":"Medication","id":"16100011","meta":{"profile":["https://simplifier.net/myhealthway/StructureDefinition/PublicMedication"]},"identifier":[{"system":"리소스식별자(미정)","value":"medication1"}],"contained":[{"resourceType":"Substance","id":"163000001","identifier":[{"system":"리소스식별자(미정)","value":"prednicarbate"}],"code":{"coding":[{"system":"https://www.hira.or.kr","code":"216935CCM","display":"prednicarbate"}]}}],"code":{"coding":[{"system":"https://biz.kpis.or.kr/CodeSystem/kdcode","code":"645702491","display":"삼아리도스타크림(프레드니카르베이트)_(50mg/20g)"}],"text":"삼아리도스타크림(프레드니카르베이트)_(50mg/20g)"},"ingredient":[{"itemReference":{"reference":"Substance/163000001","resource":{"resourceType":"Substance","id":"163000001","identifier":[{"system":"리소스식별자(미정)","value":"prednicarbate"}],"code":{"coding":[{"system":"https://www.hira.or.kr","code":"216935CCM","display":"prednicarbate"}]}}}}]}},{"resource":{"resourceType":"Medication","id":"16100012","meta":{"profile":["https://simplifier.net/myhealthway/StructureDefinition/PublicMedication"]},"identifier":[{"system":"리소스식별자(미정)","value":"medication1"}],"contained":[{"resourceType":"Substance","id":"163000001","identifier":[{"system":"리소스식별자(미정)","value":"γ-linolenic acid"}],"code":{"coding":[{"system":"https://www.hira.or.kr","code":"251201ACS","display":"γ-linolenic acid"}]}}],"code":{"coding":[{"system":"https://biz.kpis.or.kr/CodeSystem/kdcode","code":"664600720","display":"에보프림연질캡슐(달맞이꽃종자유)_(0.45g/1캡슐)"}],"text":"에보프림연질캡슐(달맞이꽃종자유)_(0.45g/1캡슐)"},"ingredient":[{"itemReference":{"reference":"Substance/163000001","resource":{"resourceType":"Substance","id":"163000001","identifier":[{"system":"리소스식별자(미정)","value":"γ-linolenic acid"}],"code":{"coding":[{"system":"https://www.hira.or.kr","code":"251201ACS","display":"γ-linolenic acid"}]}}}}]}},{"resource":{"resourceType":"Medication","id":"16100013","meta":{"profile":["https://simplifier.net/myhealthway/StructureDefinition/PublicMedication"]},"identifier":[{"system":"리소스식별자(미정)","value":"medication1"}],"contained":[{"resourceType":"Substance","id":"163000001","identifier":[{"system":"리소스식별자(미정)","value":"mosapride citrate hydrate (as mosapride)"}],"code":{"coding":[{"system":"https://www.hira.or.kr","code":"421001ATB","display":"mosapride citrate hydrate (as mosapride)"}]}}],"code":{"coding":[{"system":"https://biz.kpis.or.kr/CodeSystem/kdcode","code":"647300350","display":"모사피아정(모사프리드시트르산염수화물)_(5.29mg/1정)"}],"text":"모사피아정(모사프리드시트르산염수화물)_(5.29mg/1정)"},"ingredient":[{"itemReference":{"reference":"Substance/163000001","resource":{"resourceType":"Substance","id":"163000001","identifier":[{"system":"리소스식별자(미정)","value":"mosapride citrate hydrate (as mosapride)"}],"code":{"coding":[{"system":"https://www.hira.or.kr","code":"421001ATB","display":"mosapride citrate hydrate (as mosapride)"}]}}}}]}},{"resource":{"resourceType":"Medication","id":"16100014","meta":{"profile":["https://simplifier.net/myhealthway/StructureDefinition/PublicMedication"]},"identifier":[{"system":"리소스식별자(미정)","value":"medication1"}],"contained":[{"resourceType":"Substance","id":"163000001","identifier":[{"system":"리소스식별자(미정)","value":"rebamipide"}],"code":{"coding":[{"system":"https://www.hira.or.kr","code":"222901ATB","display":"rebamipide"}]}}],"code":{"coding":[{"system":"https://biz.kpis.or.kr/CodeSystem/kdcode","code":"670600880","display":"뮤코라민정(레바미피드)_(0.1g/1정)"}],"text":"뮤코라민정(레바미피드)_(0.1g/1정)"},"ingredient":[{"itemReference":{"reference":"Substance/163000001","resource":{"resourceType":"Substance","id":"163000001","identifier":[{"system":"리소스식별자(미정)","value":"rebamipide"}],"code":{"coding":[{"system":"https://www.hira.or.kr","code":"222901ATB","display":"rebamipide"}]}}}}]}},{"resource":{"resourceType":"Medication","id":"16100015","meta":{"profile":["https://simplifier.net/myhealthway/StructureDefinition/PublicMedication"]},"identifier":[{"system":"리소스식별자(미정)","value":"medication1"}],"contained":[{"resourceType":"Substance","id":"163000001","identifier":[{"system":"리소스식별자(미정)","value":"tiropramide hydrochloride"}],"code":{"coding":[{"system":"https://www.hira.or.kr","code":"240301ATB","display":"tiropramide hydrochloride"}]}}],"code":{"coding":[{"system":"https://biz.kpis.or.kr/CodeSystem/kdcode","code":"671803200","display":"티로드정(티로프라미드염산염)_(0.1g/1정)"}],"text":"티로드정(티로프라미드염산염)_(0.1g/1정)"},"ingredient":[{"itemReference":{"reference":"Substance/163000001","resource":{"resourceType":"Substance","id":"163000001","identifier":[{"system":"리소스식별자(미정)","value":"tiropramide hydrochloride"}],"code":{"coding":[{"system":"https://www.hira.or.kr","code":"240301ATB","display":"tiropramide hydrochloride"}]}}}}]}},{"resource":{"resourceType":"Medication","id":"16100016","meta":{"profile":["https://simplifier.net/myhealthway/StructureDefinition/PublicMedication"]},"identifier":[{"system":"리소스식별자(미정)","value":"medication1"}],"contained":[{"resourceType":"Substance","id":"163000001","identifier":[{"system":"리소스식별자(미정)","value":"pelubiprofen tromethamine (as pelubiprofen)"}],"code":{"coding":[{"system":"https://www.hira.or.kr","code":"697701ATB","display":"pelubiprofen tromethamine (as pelubiprofen)"}]}}],"code":{"coding":[{"system":"https://biz.kpis.or.kr/CodeSystem/kdcode","code":"671807340","display":"펠루비에스정(펠루비프로펜트로메타민)_(36.73mg/1정)"}],"text":"펠루비에스정(펠루비프로펜트로메타민)_(36.73mg/1정)"},"ingredient":[{"itemReference":{"reference":"Substance/163000001","resource":{"resourceType":"Substance","id":"163000001","identifier":[{"system":"리소스식별자(미정)","value":"pelubiprofen tromethamine (as pelubiprofen)"}],"code":{"coding":[{"system":"https://www.hira.or.kr","code":"697701ATB","display":"pelubiprofen tromethamine (as pelubiprofen)"}]}}}}]}},{"resource":{"resourceType":"Medication","id":"16100017","meta":{"profile":["https://simplifier.net/myhealthway/StructureDefinition/PublicMedication"]},"identifier":[{"system":"리소스식별자(미정)","value":"medication1"}],"contained":[{"resourceType":"Substance","id":"163000001","identifier":[{"system":"리소스식별자(미정)","value":"cefuroxime axetil (as cefuroxime)"}],"code":{"coding":[{"system":"https://www.hira.or.kr","code":"128903ATB","display":"cefuroxime axetil (as cefuroxime)"}]}}],"code":{"coding":[{"system":"https://biz.kpis.or.kr/CodeSystem/kdcode","code":"643501240","display":"세프틸정250밀리그램(세푸록심악세틸)_(0.30072g/1정)"}],"text":"세프틸정250밀리그램(세푸록심악세틸)_(0.30072g/1정)"},"ingredient":[{"itemReference":{"reference":"Substance/163000001","resource":{"resourceType":"Substance","id":"163000001","identifier":[{"system":"리소스식별자(미정)","value":"cefuroxime axetil (as cefuroxime)"}],"code":{"coding":[{"system":"https://www.hira.or.kr","code":"128903ATB","display":"cefuroxime axetil (as cefuroxime)"}]}}}}]}},{"resource":{"resourceType":"Medication","id":"16100018","meta":{"profile":["https://simplifier.net/myhealthway/StructureDefinition/PublicMedication"]},"identifier":[{"system":"리소스식별자(미정)","value":"medication1"}],"contained":[{"resourceType":"Substance","id":"163000001","identifier":[{"system":"리소스식별자(미정)","value":"artemisiae argyi folium 95% ethanol ext.(20→1)"}],"code":{"coding":[{"system":"https://www.hira.or.kr","code":"430101ATB","display":"artemisiae argyi folium 95% ethanol ext.(20→1)"}]}}],"code":{"coding":[{"system":"https://biz.kpis.or.kr/CodeSystem/kdcode","code":"693900190","display":"스토마정(애엽95%에탄올연조엑스(20→1))_(60mg/1정)"}],"text":"스토마정(애엽95%에탄올연조엑스(20→1))_(60mg/1정)"},"ingredient":[{"itemReference":{"reference":"Substance/163000001","resource":{"resourceType":"Substance","id":"163000001","identifier":[{"system":"리소스식별자(미정)","value":"artemisiae argyi folium 95% ethanol ext.(20→1)"}],"code":{"coding":[{"system":"https://www.hira.or.kr","code":"430101ATB","display":"artemisiae argyi folium 95% ethanol ext.(20→1)"}]}}}}]}},{"resource":{"resourceType":"Medication","id":"16100019","meta":{"profile":["https://simplifier.net/myhealthway/StructureDefinition/PublicMedication"]},"identifier":[{"system":"리소스식별자(미정)","value":"medication1"}],"contained":[{"resourceType":"Substance","id":"163000001","identifier":[{"system":"리소스식별자(미정)","value":"cefuroxime axetil (as cefuroxime)"}],"code":{"coding":[{"system":"https://www.hira.or.kr","code":"128903ATB","display":"cefuroxime axetil (as cefuroxime)"}]}}],"code":{"coding":[{"system":"https://biz.kpis.or.kr/CodeSystem/kdcode","code":"643501240","display":"세프틸정250밀리그램(세푸록심악세틸)_(0.30072g/1정)"}],"text":"세프틸정250밀리그램(세푸록심악세틸)_(0.30072g/1정)"},"ingredient":[{"itemReference":{"reference":"Substance/163000001","resource":{"resourceType":"Substance","id":"163000001","identifier":[{"system":"리소스식별자(미정)","value":"cefuroxime axetil (as cefuroxime)"}],"code":{"coding":[{"system":"https://www.hira.or.kr","code":"128903ATB","display":"cefuroxime axetil (as cefuroxime)"}]}}}}]}},{"resource":{"resourceType":"Medication","id":"16100020","meta":{"profile":["https://simplifier.net/myhealthway/StructureDefinition/PublicMedication"]},"identifier":[{"system":"리소스식별자(미정)","value":"medication1"}],"contained":[{"resourceType":"Substance","id":"163000001","identifier":[{"system":"리소스식별자(미정)","value":"mupirocin"}],"code":{"coding":[{"system":"https://www.hira.or.kr","code":"197631COM","display":"mupirocin"}]}}],"code":{"coding":[{"system":"https://biz.kpis.or.kr/CodeSystem/kdcode","code":"644100481","display":"에스로반연고(무피로신)_(0.2g/10g)"}],"text":"에스로반연고(무피로신)_(0.2g/10g)"},"ingredient":[{"itemReference":{"reference":"Substance/163000001","resource":{"resourceType":"Substance","id":"163000001","identifier":[{"system":"리소스식별자(미정)","value":"mupirocin"}],"code":{"coding":[{"system":"https://www.hira.or.kr","code":"197631COM","display":"mupirocin"}]}}}}]}},{"resource":{"resourceType":"Medication","id":"16100021","meta":{"profile":["https://simplifier.net/myhealthway/StructureDefinition/PublicMedication"]},"identifier":[{"system":"리소스식별자(미정)","value":"medication1"}],"contained":[{"resourceType":"Substance","id":"163000001","identifier":[{"system":"리소스식별자(미정)","value":"artemisiae argyi folium 95% ethanol ext.(20→1)"}],"code":{"coding":[{"system":"https://www.hira.or.kr","code":"430101ATB","display":"artemisiae argyi folium 95% ethanol ext.(20→1)"}]}}],"code":{"coding":[{"system":"https://biz.kpis.or.kr/CodeSystem/kdcode","code":"693900190","display":"스토마정(애엽95%에탄올연조엑스(20→1))_(60mg/1정)"}],"text":"스토마정(애엽95%에탄올연조엑스(20→1))_(60mg/1정)"},"ingredient":[{"itemReference":{"reference":"Substance/163000001","resource":{"resourceType":"Substance","id":"163000001","identifier":[{"system":"리소스식별자(미정)","value":"artemisiae argyi folium 95% ethanol ext.(20→1)"}],"code":{"coding":[{"system":"https://www.hira.or.kr","code":"430101ATB","display":"artemisiae argyi folium 95% ethanol ext.(20→1)"}]}}}}]}},{"resource":{"resourceType":"Medication","id":"16100030","meta":{"profile":["https://simplifier.net/myhealthway/StructureDefinition/PublicMedication"]},"identifier":[{"system":"리소스식별자(미정)","value":"medication1"}],"contained":[{"resourceType":"Substance","id":"163000001","identifier":[{"system":"리소스식별자(미정)","value":"epinephrine bitartrate (as epinephrine)"}],"code":{"coding":[{"system":"https://www.hira.or.kr","code":"314300BIJ","display":"epinephrine bitartrate (as epinephrine)"}]}}],"code":{"coding":[{"system":"https://biz.kpis.or.kr/CodeSystem/kdcode","code":"625300030","display":"노보콜100주(카트리지)_(1.8mL)"}],"text":"노보콜100주(카트리지)_(1.8mL)"},"ingredient":[{"itemReference":{"reference":"Substance/163000001","resource":{"resourceType":"Substance","id":"163000001","identifier":[{"system":"리소스식별자(미정)","value":"epinephrine bitartrate (as epinephrine)"}],"code":{"coding":[{"system":"https://www.hira.or.kr","code":"314300BIJ","display":"epinephrine bitartrate (as epinephrine)"}]}}}}]}},{"resource":{"resourceType":"Medication","id":"16100022","meta":{"profile":["https://simplifier.net/myhealthway/StructureDefinition/PublicMedication"]},"identifier":[{"system":"리소스식별자(미정)","value":"medication1"}],"contained":[{"resourceType":"Substance","id":"163000001","identifier":[{"system":"리소스식별자(미정)","value":"bepotastine besilate"}],"code":{"coding":[{"system":"https://www.hira.or.kr","code":"453902ATB","display":"bepotastine besilate"}]}}],"code":{"coding":[{"system":"https://biz.kpis.or.kr/CodeSystem/kdcode","code":"626500960","display":"투리온정(베포타스틴베실산염)_(10mg/1정)"}],"text":"투리온정(베포타스틴베실산염)_(10mg/1정)"},"ingredient":[{"itemReference":{"reference":"Substance/163000001","resource":{"resourceType":"Substance","id":"163000001","identifier":[{"system":"리소스식별자(미정)","value":"bepotastine besilate"}],"code":{"coding":[{"system":"https://www.hira.or.kr","code":"453902ATB","display":"bepotastine besilate"}]}}}}]}},{"resource":{"resourceType":"Medication","id":"16100023","meta":{"profile":["https://simplifier.net/myhealthway/StructureDefinition/PublicMedication"]},"identifier":[{"system":"리소스식별자(미정)","value":"medication1"}],"contained":[{"resourceType":"Substance","id":"163000001","identifier":[{"system":"리소스식별자(미정)","value":"tacrolimus hydrate (as tacrolimus)"}],"code":{"coding":[{"system":"https://www.hira.or.kr","code":"426333COM","display":"tacrolimus hydrate (as tacrolimus)"}]}}],"code":{"coding":[{"system":"https://biz.kpis.or.kr/CodeSystem/kdcode","code":"626700112","display":"프로토픽연고0.1%(타크로리무스수화물)_(30.6mg/30g)"}],"text":"프로토픽연고0.1%(타크로리무스수화물)_(30.6mg/30g)"},"ingredient":[{"itemReference":{"reference":"Substance/163000001","resource":{"resourceType":"Substance","id":"163000001","identifier":[{"system":"리소스식별자(미정)","value":"tacrolimus hydrate (as tacrolimus)"}],"code":{"coding":[{"system":"https://www.hira.or.kr","code":"426333COM","display":"tacrolimus hydrate (as tacrolimus)"}]}}}}]}},{"resource":{"resourceType":"Medication","id":"16100024","meta":{"profile":["https://simplifier.net/myhealthway/StructureDefinition/PublicMedication"]},"identifier":[{"system":"리소스식별자(미정)","value":"medication1"}],"contained":[{"resourceType":"Substance","id":"163000001","identifier":[{"system":"리소스식별자(미정)","value":"desoxymethasone"}],"code":{"coding":[{"system":"https://www.hira.or.kr","code":"141634COM","display":"desoxymethasone"}]}}],"code":{"coding":[{"system":"https://biz.kpis.or.kr/CodeSystem/kdcode","code":"643200104","display":"데타손연고0.25%(데속시메타손)_(75mg/30g)"}],"text":"데타손연고0.25%(데속시메타손)_(75mg/30g)"},"ingredient":[{"itemReference":{"reference":"Substance/163000001","resource":{"resourceType":"Substance","id":"163000001","identifier":[{"system":"리소스식별자(미정)","value":"desoxymethasone"}],"code":{"coding":[{"system":"https://www.hira.or.kr","code":"141634COM","display":"desoxymethasone"}]}}}}]}},{"resource":{"resourceType":"Medication","id":"16100025","meta":{"profile":["https://simplifier.net/myhealthway/StructureDefinition/PublicMedication"]},"identifier":[{"system":"리소스식별자(미정)","value":"medication1"}],"contained":[{"resourceType":"Substance","id":"163000001","identifier":[{"system":"리소스식별자(미정)","value":"prednicarbate"}],"code":{"coding":[{"system":"https://www.hira.or.kr","code":"216935CCM","display":"prednicarbate"}]}}],"code":{"coding":[{"system":"https://biz.kpis.or.kr/CodeSystem/kdcode","code":"645702491","display":"삼아리도스타크림(프레드니카르베이트)_(50mg/20g)"}],"text":"삼아리도스타크림(프레드니카르베이트)_(50mg/20g)"},"ingredient":[{"itemReference":{"reference":"Substance/163000001","resource":{"resourceType":"Substance","id":"163000001","identifier":[{"system":"리소스식별자(미정)","value":"prednicarbate"}],"code":{"coding":[{"system":"https://www.hira.or.kr","code":"216935CCM","display":"prednicarbate"}]}}}}]}},{"resource":{"resourceType":"Medication","id":"16100026","meta":{"profile":["https://simplifier.net/myhealthway/StructureDefinition/PublicMedication"]},"identifier":[{"system":"리소스식별자(미정)","value":"medication1"}],"contained":[{"resourceType":"Substance","id":"163000001","identifier":[{"system":"리소스식별자(미정)","value":"bacillus subtilis"}],"code":{"coding":[{"system":"https://www.hira.or.kr","code":"E60500ACH","display":"bacillus subtilis"}]}}],"code":{"coding":[{"system":"https://biz.kpis.or.kr/CodeSystem/kdcode","code":"655605380","display":"바이오탑하이포르테캡슐_(1캡슐)"}],"text":"바이오탑하이포르테캡슐_(1캡슐)"},"ingredient":[{"itemReference":{"reference":"Substance/163000001","resource":{"resourceType":"Substance","id":"163000001","identifier":[{"system":"리소스식별자(미정)","value":"bacillus subtilis"}],"code":{"coding":[{"system":"https://www.hira.or.kr","code":"E60500ACH","display":"bacillus subtilis"}]}}}}]}},{"resource":{"resourceType":"Medication","id":"16100027","meta":{"profile":["https://simplifier.net/myhealthway/StructureDefinition/PublicMedication"]},"identifier":[{"system":"리소스식별자(미정)","value":"medication1"}],"contained":[{"resourceType":"Substance","id":"163000001","identifier":[{"system":"리소스식별자(미정)","value":"bacteria culture of Lactobacillus rhamnosus R0011 and Lactobacillus helveticus R0052"}],"code":{"coding":[{"system":"https://www.hira.or.kr","code":"487401ACH","display":"bacteria culture of Lactobacillus rhamnosus R0011 and Lactobacillus helveticus R0052"}]}}],"code":{"coding":[{"system":"https://biz.kpis.or.kr/CodeSystem/kdcode","code":"659900030","display":"라시도필캡슐_(락토바실루스람노수스R0011균락토바실루스아시도필루스Roo52균 혼합배양물, 20mg/1캡슐)"}],"text":"라시도필캡슐_(락토바실루스람노수스R0011균락토바실루스아시도필루스Roo52균 혼합배양물, 20mg/1캡슐)"},"ingredient":[{"itemReference":{"reference":"Substance/163000001","resource":{"resourceType":"Substance","id":"163000001","identifier":[{"system":"리소스식별자(미정)","value":"bacteria culture of Lactobacillus rhamnosus R0011 and Lactobacillus helveticus R0052"}],"code":{"coding":[{"system":"https://www.hira.or.kr","code":"487401ACH","display":"bacteria culture of Lactobacillus rhamnosus R0011 and Lactobacillus helveticus R0052"}]}}}}]}},{"resource":{"resourceType":"Medication","id":"16100028","meta":{"profile":["https://simplifier.net/myhealthway/StructureDefinition/PublicMedication"]},"identifier":[{"system":"리소스식별자(미정)","value":"medication1"}],"contained":[{"resourceType":"Substance","id":"163000001","identifier":[{"system":"리소스식별자(미정)","value":"γ-linolenic acid"}],"code":{"coding":[{"system":"https://www.hira.or.kr","code":"251201ACS","display":"γ-linolenic acid"}]}}],"code":{"coding":[{"system":"https://biz.kpis.or.kr/CodeSystem/kdcode","code":"664600720","display":"에보프림연질캡슐(달맞이꽃종자유)_(0.45g/1캡슐)"}],"text":"에보프림연질캡슐(달맞이꽃종자유)_(0.45g/1캡슐)"},"ingredient":[{"itemReference":{"reference":"Substance/163000001","resource":{"resourceType":"Substance","id":"163000001","identifier":[{"system":"리소스식별자(미정)","value":"γ-linolenic acid"}],"code":{"coding":[{"system":"https://www.hira.or.kr","code":"251201ACS","display":"γ-linolenic acid"}]}}}}]}},{"resource":{"resourceType":"Medication","id":"16100029","meta":{"profile":["https://simplifier.net/myhealthway/StructureDefinition/PublicMedication"]},"identifier":[{"system":"리소스식별자(미정)","value":"medication1"}],"contained":[{"resourceType":"Substance","id":"163000001","identifier":[{"system":"리소스식별자(미정)","value":"cholecalciferol concentrated powder (as vitamin D3)"}],"code":{"coding":[{"system":"https://www.hira.or.kr","code":"D07901ATB","display":"cholecalciferol concentrated powder (as vitamin D3)"}]}}],"code":{"coding":[{"system":"https://biz.kpis.or.kr/CodeSystem/kdcode","code":"664602100","display":"디맥정(농축콜레칼시페롤과립)_(10mg/1정)"}],"text":"디맥정(농축콜레칼시페롤과립)_(10mg/1정)"},"ingredient":[{"itemReference":{"reference":"Substance/163000001","resource":{"resourceType":"Substance","id":"163000001","identifier":[{"system":"리소스식별자(미정)","value":"cholecalciferol concentrated powder (as vitamin D3)"}],"code":{"coding":[{"system":"https://www.hira.or.kr","code":"D07901ATB","display":"cholecalciferol concentrated powder (as vitamin D3)"}]}}}}]}},{"resource":{"resourceType":"Medication","id":"16100031","meta":{"profile":["https://simplifier.net/myhealthway/StructureDefinition/PublicMedication"]},"identifier":[{"system":"리소스식별자(미정)","value":"medication1"}],"contained":[{"resourceType":"Substance","id":"163000001","identifier":[{"system":"리소스식별자(미정)","value":"epinephrine bitartrate (as epinephrine)"}],"code":{"coding":[{"system":"https://www.hira.or.kr","code":"314300BIJ","display":"epinephrine bitartrate (as epinephrine)"}]}}],"code":{"coding":[{"system":"https://biz.kpis.or.kr/CodeSystem/kdcode","code":"625300030","display":"노보콜100주(카트리지)_(1.8mL)"}],"text":"노보콜100주(카트리지)_(1.8mL)"},"ingredient":[{"itemReference":{"reference":"Substance/163000001","resource":{"resourceType":"Substance","id":"163000001","identifier":[{"system":"리소스식별자(미정)","value":"epinephrine bitartrate (as epinephrine)"}],"code":{"coding":[{"system":"https://www.hira.or.kr","code":"314300BIJ","display":"epinephrine bitartrate (as epinephrine)"}]}}}}]}},{"resource":{"resourceType":"Medication","id":"16100032","meta":{"profile":["https://simplifier.net/myhealthway/StructureDefinition/PublicMedication"]},"identifier":[{"system":"리소스식별자(미정)","value":"medication1"}],"contained":[{"resourceType":"Substance","id":"163000001","identifier":[{"system":"리소스식별자(미정)","value":"epinephrine bitartrate (as epinephrine)"}],"code":{"coding":[{"system":"https://www.hira.or.kr","code":"314300BIJ","display":"epinephrine bitartrate (as epinephrine)"}]}}],"code":{"coding":[{"system":"https://biz.kpis.or.kr/CodeSystem/kdcode","code":"670603440","display":"휴온스리도카인염산염수화물-에피네프린주(1:100,000)[수출명:메디카인주(1:100,000),MEDICAINEINJ.2%(1:100,000),I.M2%,KWANGMYUNGLidocaineHCI·EpinephrineInj.(1:100,000),doton(1:100,000)]_(1.8mL)"}],"text":"휴온스리도카인염산염수화물-에피네프린주(1:100,000)[수출명:메디카인주(1:100,000),MEDICAINEINJ.2%(1:100,000),I.M2%,KWANGMYUNGLidocaineHCI·EpinephrineInj.(1:100,000),doton(1:100,000)]_(1.8mL)"},"ingredient":[{"itemReference":{"reference":"Substance/163000001","resource":{"resourceType":"Substance","id":"163000001","identifier":[{"system":"리소스식별자(미정)","value":"epinephrine bitartrate (as epinephrine)"}],"code":{"coding":[{"system":"https://www.hira.or.kr","code":"314300BIJ","display":"epinephrine bitartrate (as epinephrine)"}]}}}}]}},{"resource":{"resourceType":"Medication","id":"16100033","meta":{"profile":["https://simplifier.net/myhealthway/StructureDefinition/PublicMedication"]},"identifier":[{"system":"리소스식별자(미정)","value":"medication1"}],"contained":[{"resourceType":"Substance","id":"163000001","identifier":[{"system":"리소스식별자(미정)","value":"epinephrine bitartrate (as epinephrine)"}],"code":{"coding":[{"system":"https://www.hira.or.kr","code":"314300BIJ","display":"epinephrine bitartrate (as epinephrine)"}]}}],"code":{"coding":[{"system":"https://biz.kpis.or.kr/CodeSystem/kdcode","code":"670603440","display":"휴온스리도카인염산염수화물-에피네프린주(1:100,000)[수출명:메디카인주(1:100,000),MEDICAINEINJ.2%(1:100,000),I.M2%,KWANGMYUNGLidocaineHCI·EpinephrineInj.(1:100,000),doton(1:100,000)]_(1.8mL)"}],"text":"휴온스리도카인염산염수화물-에피네프린주(1:100,000)[수출명:메디카인주(1:100,000),MEDICAINEINJ.2%(1:100,000),I.M2%,KWANGMYUNGLidocaineHCI·EpinephrineInj.(1:100,000),doton(1:100,000)]_(1.8mL)"},"ingredient":[{"itemReference":{"reference":"Substance/163000001","resource":{"resourceType":"Substance","id":"163000001","identifier":[{"system":"리소스식별자(미정)","value":"epinephrine bitartrate (as epinephrine)"}],"code":{"coding":[{"system":"https://www.hira.or.kr","code":"314300BIJ","display":"epinephrine bitartrate (as epinephrine)"}]}}}}]}},{"resource":{"resourceType":"Medication","id":"16100034","meta":{"profile":["https://simplifier.net/myhealthway/StructureDefinition/PublicMedication"]},"identifier":[{"system":"리소스식별자(미정)","value":"medication1"}],"contained":[{"resourceType":"Substance","id":"163000001","identifier":[{"system":"리소스식별자(미정)","value":"bepotastine besilate"}],"code":{"coding":[{"system":"https://www.hira.or.kr","code":"453902ATB","display":"bepotastine besilate"}]}}],"code":{"coding":[{"system":"https://biz.kpis.or.kr/CodeSystem/kdcode","code":"626500960","display":"투리온정(베포타스틴베실산염)_(10mg/1정)"}],"text":"투리온정(베포타스틴베실산염)_(10mg/1정)"},"ingredient":[{"itemReference":{"reference":"Substance/163000001","resource":{"resourceType":"Substance","id":"163000001","identifier":[{"system":"리소스식별자(미정)","value":"bepotastine besilate"}],"code":{"coding":[{"system":"https://www.hira.or.kr","code":"453902ATB","display":"bepotastine besilate"}]}}}}]}},{"resource":{"resourceType":"Medication","id":"16100035","meta":{"profile":["https://simplifier.net/myhealthway/StructureDefinition/PublicMedication"]},"identifier":[{"system":"리소스식별자(미정)","value":"medication1"}],"contained":[{"resourceType":"Substance","id":"163000001","identifier":[{"system":"리소스식별자(미정)","value":"tacrolimus hydrate (as tacrolimus)"}],"code":{"coding":[{"system":"https://www.hira.or.kr","code":"426333COM","display":"tacrolimus hydrate (as tacrolimus)"}]}}],"code":{"coding":[{"system":"https://biz.kpis.or.kr/CodeSystem/kdcode","code":"626700112","display":"프로토픽연고0.1%(타크로리무스수화물)_(30.6mg/30g)"}],"text":"프로토픽연고0.1%(타크로리무스수화물)_(30.6mg/30g)"},"ingredient":[{"itemReference":{"reference":"Substance/163000001","resource":{"resourceType":"Substance","id":"163000001","identifier":[{"system":"리소스식별자(미정)","value":"tacrolimus hydrate (as tacrolimus)"}],"code":{"coding":[{"system":"https://www.hira.or.kr","code":"426333COM","display":"tacrolimus hydrate (as tacrolimus)"}]}}}}]}},{"resource":{"resourceType":"Medication","id":"16100036","meta":{"profile":["https://simplifier.net/myhealthway/StructureDefinition/PublicMedication"]},"identifier":[{"system":"리소스식별자(미정)","value":"medication1"}],"contained":[{"resourceType":"Substance","id":"163000001","identifier":[{"system":"리소스식별자(미정)","value":"desoxymethasone"}],"code":{"coding":[{"system":"https://www.hira.or.kr","code":"141634COM","display":"desoxymethasone"}]}}],"code":{"coding":[{"system":"https://biz.kpis.or.kr/CodeSystem/kdcode","code":"643200104","display":"데타손연고0.25%(데속시메타손)_(75mg/30g)"}],"text":"데타손연고0.25%(데속시메타손)_(75mg/30g)"},"ingredient":[{"itemReference":{"reference":"Substance/163000001","resource":{"resourceType":"Substance","id":"163000001","identifier":[{"system":"리소스식별자(미정)","value":"desoxymethasone"}],"code":{"coding":[{"system":"https://www.hira.or.kr","code":"141634COM","display":"desoxymethasone"}]}}}}]}},{"resource":{"resourceType":"Medication","id":"16100037","meta":{"profile":["https://simplifier.net/myhealthway/StructureDefinition/PublicMedication"]},"identifier":[{"system":"리소스식별자(미정)","value":"medication1"}],"contained":[{"resourceType":"Substance","id":"163000001","identifier":[{"system":"리소스식별자(미정)","value":"fluticasone propionate"}],"code":{"coding":[{"system":"https://www.hira.or.kr","code":"162234CCM","display":"fluticasone propionate"}]}}],"code":{"coding":[{"system":"https://biz.kpis.or.kr/CodeSystem/kdcode","code":"650001911","display":"큐티베이트크림(플루티카손프로피오네이트(미분화))_(7.5mg/15g)"}],"text":"큐티베이트크림(플루티카손프로피오네이트(미분화))_(7.5mg/15g)"},"ingredient":[{"itemReference":{"reference":"Substance/163000001","resource":{"resourceType":"Substance","id":"163000001","identifier":[{"system":"리소스식별자(미정)","value":"fluticasone propionate"}],"code":{"coding":[{"system":"https://www.hira.or.kr","code":"162234CCM","display":"fluticasone propionate"}]}}}}]}},{"resource":{"resourceType":"Medication","id":"16100038","meta":{"profile":["https://simplifier.net/myhealthway/StructureDefinition/PublicMedication"]},"identifier":[{"system":"리소스식별자(미정)","value":"medication1"}],"contained":[{"resourceType":"Substance","id":"163000001","identifier":[{"system":"리소스식별자(미정)","value":"bacteria culture of Lactobacillus rhamnosus R0011 and Lactobacillus helveticus R0052"}],"code":{"coding":[{"system":"https://www.hira.or.kr","code":"487401ACH","display":"bacteria culture of Lactobacillus rhamnosus R0011 and Lactobacillus helveticus R0052"}]}}],"code":{"coding":[{"system":"https://biz.kpis.or.kr/CodeSystem/kdcode","code":"659900030","display":"라시도필캡슐_(락토바실루스람노수스R0011균락토바실루스아시도필루스Roo52균 혼합배양물, 20mg/1캡슐)"}],"text":"라시도필캡슐_(락토바실루스람노수스R0011균락토바실루스아시도필루스Roo52균 혼합배양물, 20mg/1캡슐)"},"ingredient":[{"itemReference":{"reference":"Substance/163000001","resource":{"resourceType":"Substance","id":"163000001","identifier":[{"system":"리소스식별자(미정)","value":"bacteria culture of Lactobacillus rhamnosus R0011 and Lactobacillus helveticus R0052"}],"code":{"coding":[{"system":"https://www.hira.or.kr","code":"487401ACH","display":"bacteria culture of Lactobacillus rhamnosus R0011 and Lactobacillus helveticus R0052"}]}}}}]}},{"resource":{"resourceType":"ExplanationOfBenefit","id":"17000004","meta":{"profile":["https://simplifier.net/myhealthway/StructureDefinition/PublicExplanationOfBenefit"]},"identifier":[{"system":"리소스식별자(미정)","value":"2c769062-6a67-4341-a91d-14a2321adcec"}],"contained":[{"resourceType":"Organization","id":"17100001","type":[{"coding":[{"system":"미정","code":"미정","display":"보험사"}],"text":"보험사"}],"name":"국민건강보험공단"},{"resourceType":"Organization","id":"17100002","type":[{"coding":[{"system":"미정","code":"미정","display":"병의원"}],"text":"병의원"}],"name":"분당서울대학교병원","address":[{"text":"성남시 분당구"}]},{"resourceType":"Coverage","id":"17300001","status":"active","beneficiary":{"reference":"Patient/10000000","resource":{"resourceType":"Patient","id":"10000000","meta":{"profile":["https://simplifier.net/myhealthway/StructureDefinition/PublicPatient"]},"identifier":[{"type":{"coding":[{"system":"http://myhealthway.go.kr(가칭)","code":"MHID"}]},"system":"미정","value":"10237551"},{"type":{"coding":[{"system":"http://terminology.hl7.org/CodeSystem/v2-0203","code":"NNKOR"}]},"system":"http://mois.go.kr/rnn","value":"0502184******"}],"name":[{"text":"김민선"}]}},"payor":[{"reference":"Organization/17100002","resource":{"resourceType":"Organization","id":"17100002","type":[{"coding":[{"system":"미정","code":"미정","display":"병의원"}],"text":"병의원"}],"name":"분당서울대학교병원","address":[{"text":"성남시 분당구"}]}}]}],"status":"active","type":{"coding":[{"system":"http://terminology.hl7.org/CodeSystem/claim-type","code":"institutional","display":"institutional"}]},"use":"claim","patient":{"reference":"Patient/10000000","resource":{"resourceType":"Patient","id":"10000000","meta":{"profile":["https://simplifier.net/myhealthway/StructureDefinition/PublicPatient"]},"identifier":[{"type":{"coding":[{"system":"http://myhealthway.go.kr(가칭)","code":"MHID"}]},"system":"미정","value":"10237551"},{"type":{"coding":[{"system":"http://terminology.hl7.org/CodeSystem/v2-0203","code":"NNKOR"}]},"system":"http://mois.go.kr/rnn","value":"0502184******"}],"name":[{"text":"김민선"}]}},"billablePeriod":{"start":"2025-02-18"},"created":"2025-02-18","insurer":{"reference":"Organization/17100001","resource":{"resourceType":"Organization","id":"17100001","type":[{"coding":[{"system":"미정","code":"미정","display":"보험사"}],"text":"보험사"}],"name":"국민건강보험공단"}},"provider":{"reference":"Organization/17100002","resource":{"resourceType":"Organization","id":"17100002","type":[{"coding":[{"system":"미정","code":"미정","display":"병의원"}],"text":"병의원"}],"name":"분당서울대학교병원","address":[{"text":"성남시 분당구"}]}},"outcome":"complete","supportingInfo":[{"sequence":1,"category":{"coding":[{"system":"http://terminology.hl7.org/CodeSystem/claiminformationcategory","code":"hospitalized","display":"Hosptialized"}]},"code":{"text":"1"}},{"sequence":2,"category":{"coding":[{"system":"http://terminology.hl7.org/CodeSystem/claiminformationcategory","code":"related","display":"Related Service"}]},"code":{"text":"1"}},{"sequence":3,"category":{"coding":[{"system":"http://terminology.hl7.org/CodeSystem/claiminformationcategory","code":"other","display":"Other"}]},"code":{"text":"1"}}],"total":[{"category":{"coding":[{"system":"http://terminology.hl7.org/CodeSystem/adjudication","code":"copay","display":"CoPay"}]},"amount":{"value":21200,"currency":"KRW"}},{"category":{"coding":[{"system":"http://terminology.hl7.org/CodeSystem/adjudication","code":"benefit","display":"Benefit Amount"}]},"amount":{"value":3330,"currency":"KRW"}}]}},{"resource":{"resourceType":"ExplanationOfBenefit","id":"17000001","meta":{"profile":["https://simplifier.net/myhealthway/StructureDefinition/PublicExplanationOfBenefit"]},"identifier":[{"system":"리소스식별자(미정)","value":"ec835812-7e08-463b-a035-e169767ac4c2"}],"contained":[{"resourceType":"Organization","id":"17100001","type":[{"coding":[{"system":"미정","code":"미정","display":"보험사"}],"text":"보험사"}],"name":"국민건강보험공단"},{"resourceType":"Organization","id":"17100002","type":[{"coding":[{"system":"미정","code":"미정","display":"약국"}],"text":"약국"}],"name":"가자크린팜대학약국","address":[{"text":"성남시 분당구"}]},{"resourceType":"Coverage","id":"17300001","status":"active","beneficiary":{"reference":"Patient/10000000","resource":{"resourceType":"Patient","id":"10000000","meta":{"profile":["https://simplifier.net/myhealthway/StructureDefinition/PublicPatient"]},"identifier":[{"type":{"coding":[{"system":"http://myhealthway.go.kr(가칭)","code":"MHID"}]},"system":"미정","value":"10237551"},{"type":{"coding":[{"system":"http://terminology.hl7.org/CodeSystem/v2-0203","code":"NNKOR"}]},"system":"http://mois.go.kr/rnn","value":"0502184******"}],"name":[{"text":"김민선"}]}},"payor":[{"reference":"Organization/17100002","resource":{"resourceType":"Organization","id":"17100002","type":[{"coding":[{"system":"미정","code":"미정","display":"약국"}],"text":"약국"}],"name":"가자크린팜대학약국","address":[{"text":"성남시 분당구"}]}}]}],"status":"active","type":{"coding":[{"system":"http://terminology.hl7.org/CodeSystem/claim-type","code":"pharmacy","display":"pharmacy"}]},"use":"claim","patient":{"reference":"Patient/10000000","resource":{"resourceType":"Patient","id":"10000000","meta":{"profile":["https://simplifier.net/myhealthway/StructureDefinition/PublicPatient"]},"identifier":[{"type":{"coding":[{"system":"http://myhealthway.go.kr(가칭)","code":"MHID"}]},"system":"미정","value":"10237551"},{"type":{"coding":[{"system":"http://terminology.hl7.org/CodeSystem/v2-0203","code":"NNKOR"}]},"system":"http://mois.go.kr/rnn","value":"0502184******"}],"name":[{"text":"김민선"}]}},"billablePeriod":{"start":"2025-04-01"},"created":"2025-04-01","insurer":{"reference":"Organization/17100001","resource":{"resourceType":"Organization","id":"17100001","type":[{"coding":[{"system":"미정","code":"미정","display":"보험사"}],"text":"보험사"}],"name":"국민건강보험공단"}},"provider":{"reference":"Organization/17100002","resource":{"resourceType":"Organization","id":"17100002","type":[{"coding":[{"system":"미정","code":"미정","display":"약국"}],"text":"약국"}],"name":"가자크린팜대학약국","address":[{"text":"성남시 분당구"}]}},"outcome":"complete","supportingInfo":[{"sequence":1,"category":{"coding":[{"system":"http://terminology.hl7.org/CodeSystem/claiminformationcategory","code":"hospitalized","display":"Hosptialized"}]},"code":{"text":"1"}},{"sequence":2,"category":{"coding":[{"system":"http://terminology.hl7.org/CodeSystem/claiminformationcategory","code":"related","display":"Related Service"}]},"code":{"text":"1"}},{"sequence":3,"category":{"coding":[{"system":"http://terminology.hl7.org/CodeSystem/claiminformationcategory","code":"other","display":"Other"}]},"code":{"text":"30"}}],"total":[{"category":{"coding":[{"system":"http://terminology.hl7.org/CodeSystem/adjudication","code":"copay","display":"CoPay"}]},"amount":{"value":12100,"currency":"KRW"}},{"category":{"coding":[{"system":"http://terminology.hl7.org/CodeSystem/adjudication","code":"benefit","display":"Benefit Amount"}]},"amount":{"value":28550,"currency":"KRW"}}]}},{"resource":{"resourceType":"ExplanationOfBenefit","id":"17000002","meta":{"profile":["https://simplifier.net/myhealthway/StructureDefinition/PublicExplanationOfBenefit"]},"identifier":[{"system":"리소스식별자(미정)","value":"36d41bc1-f3e8-4b6d-9466-03f203486542"}],"contained":[{"resourceType":"Organization","id":"17100001","type":[{"coding":[{"system":"미정","code":"미정","display":"보험사"}],"text":"보험사"}],"name":"국민건강보험공단"},{"resourceType":"Organization","id":"17100002","type":[{"coding":[{"system":"미정","code":"미정","display":"병의원"}],"text":"병의원"}],"name":"믿음내과의원","address":[{"text":"성남시 분당구"}]},{"resourceType":"Coverage","id":"17300001","status":"active","beneficiary":{"reference":"Patient/10000000","resource":{"resourceType":"Patient","id":"10000000","meta":{"profile":["https://simplifier.net/myhealthway/StructureDefinition/PublicPatient"]},"identifier":[{"type":{"coding":[{"system":"http://myhealthway.go.kr(가칭)","code":"MHID"}]},"system":"미정","value":"10237551"},{"type":{"coding":[{"system":"http://terminology.hl7.org/CodeSystem/v2-0203","code":"NNKOR"}]},"system":"http://mois.go.kr/rnn","value":"0502184******"}],"name":[{"text":"김민선"}]}},"payor":[{"reference":"Organization/17100002","resource":{"resourceType":"Organization","id":"17100002","type":[{"coding":[{"system":"미정","code":"미정","display":"병의원"}],"text":"병의원"}],"name":"믿음내과의원","address":[{"text":"성남시 분당구"}]}}]}],"status":"active","type":{"coding":[{"system":"http://terminology.hl7.org/CodeSystem/claim-type","code":"institutional","display":"institutional"}]},"use":"claim","patient":{"reference":"Patient/10000000","resource":{"resourceType":"Patient","id":"10000000","meta":{"profile":["https://simplifier.net/myhealthway/StructureDefinition/PublicPatient"]},"identifier":[{"type":{"coding":[{"system":"http://myhealthway.go.kr(가칭)","code":"MHID"}]},"system":"미정","value":"10237551"},{"type":{"coding":[{"system":"http://terminology.hl7.org/CodeSystem/v2-0203","code":"NNKOR"}]},"system":"http://mois.go.kr/rnn","value":"0502184******"}],"name":[{"text":"김민선"}]}},"billablePeriod":{"start":"2025-03-31"},"created":"2025-03-31","insurer":{"reference":"Organization/17100001","resource":{"resourceType":"Organization","id":"17100001","type":[{"coding":[{"system":"미정","code":"미정","display":"보험사"}],"text":"보험사"}],"name":"국민건강보험공단"}},"provider":{"reference":"Organization/17100002","resource":{"resourceType":"Organization","id":"17100002","type":[{"coding":[{"system":"미정","code":"미정","display":"병의원"}],"text":"병의원"}],"name":"믿음내과의원","address":[{"text":"성남시 분당구"}]}},"outcome":"complete","supportingInfo":[{"sequence":1,"category":{"coding":[{"system":"http://terminology.hl7.org/CodeSystem/claiminformationcategory","code":"hospitalized","display":"Hosptialized"}]},"code":{"text":"1"}},{"sequence":2,"category":{"coding":[{"system":"http://terminology.hl7.org/CodeSystem/claiminformationcategory","code":"related","display":"Related Service"}]},"code":{"text":"1"}},{"sequence":3,"category":{"coding":[{"system":"http://terminology.hl7.org/CodeSystem/claiminformationcategory","code":"other","display":"Other"}]},"code":{"text":"1"}}],"total":[{"category":{"coding":[{"system":"http://terminology.hl7.org/CodeSystem/adjudication","code":"copay","display":"CoPay"}]},"amount":{"value":3900,"currency":"KRW"}},{"category":{"coding":[{"system":"http://terminology.hl7.org/CodeSystem/adjudication","code":"benefit","display":"Benefit Amount"}]},"amount":{"value":9260,"currency":"KRW"}}]}},{"resource":{"resourceType":"ExplanationOfBenefit","id":"17000003","meta":{"profile":["https://simplifier.net/myhealthway/StructureDefinition/PublicExplanationOfBenefit"]},"identifier":[{"system":"리소스식별자(미정)","value":"2fd5202b-e659-4b3c-8ac1-5eb7500aa9cd"}],"contained":[{"resourceType":"Organization","id":"17100001","type":[{"coding":[{"system":"미정","code":"미정","display":"보험사"}],"text":"보험사"}],"name":"국민건강보험공단"},{"resourceType":"Organization","id":"17100002","type":[{"coding":[{"system":"미정","code":"미정","display":"약국"}],"text":"약국"}],"name":"바른약국","address":[{"text":"성남시 분당구"}]},{"resourceType":"Coverage","id":"17300001","status":"active","beneficiary":{"reference":"Patient/10000000","resource":{"resourceType":"Patient","id":"10000000","meta":{"profile":["https://simplifier.net/myhealthway/StructureDefinition/PublicPatient"]},"identifier":[{"type":{"coding":[{"system":"http://myhealthway.go.kr(가칭)","code":"MHID"}]},"system":"미정","value":"10237551"},{"type":{"coding":[{"system":"http://terminology.hl7.org/CodeSystem/v2-0203","code":"NNKOR"}]},"system":"http://mois.go.kr/rnn","value":"0502184******"}],"name":[{"text":"김민선"}]}},"payor":[{"reference":"Organization/17100002","resource":{"resourceType":"Organization","id":"17100002","type":[{"coding":[{"system":"미정","code":"미정","display":"약국"}],"text":"약국"}],"name":"바른약국","address":[{"text":"성남시 분당구"}]}}]}],"status":"active","type":{"coding":[{"system":"http://terminology.hl7.org/CodeSystem/claim-type","code":"pharmacy","display":"pharmacy"}]},"use":"claim","patient":{"reference":"Patient/10000000","resource":{"resourceType":"Patient","id":"10000000","meta":{"profile":["https://simplifier.net/myhealthway/StructureDefinition/PublicPatient"]},"identifier":[{"type":{"coding":[{"system":"http://myhealthway.go.kr(가칭)","code":"MHID"}]},"system":"미정","value":"10237551"},{"type":{"coding":[{"system":"http://terminology.hl7.org/CodeSystem/v2-0203","code":"NNKOR"}]},"system":"http://mois.go.kr/rnn","value":"0502184******"}],"name":[{"text":"김민선"}]}},"billablePeriod":{"start":"2025-03-18"},"created":"2025-03-18","insurer":{"reference":"Organization/17100001","resource":{"resourceType":"Organization","id":"17100001","type":[{"coding":[{"system":"미정","code":"미정","display":"보험사"}],"text":"보험사"}],"name":"국민건강보험공단"}},"provider":{"reference":"Organization/17100002","resource":{"resourceType":"Organization","id":"17100002","type":[{"coding":[{"system":"미정","code":"미정","display":"약국"}],"text":"약국"}],"name":"바른약국","address":[{"text":"성남시 분당구"}]}},"outcome":"complete","supportingInfo":[{"sequence":1,"category":{"coding":[{"system":"http://terminology.hl7.org/CodeSystem/claiminformationcategory","code":"hospitalized","display":"Hosptialized"}]},"code":{"text":"1"}},{"sequence":2,"category":{"coding":[{"system":"http://terminology.hl7.org/CodeSystem/claiminformationcategory","code":"related","display":"Related Service"}]},"code":{"text":"1"}},{"sequence":3,"category":{"coding":[{"system":"http://terminology.hl7.org/CodeSystem/claiminformationcategory","code":"other","display":"Other"}]},"code":{"text":"3"}}],"total":[{"category":{"coding":[{"system":"http://terminology.hl7.org/CodeSystem/adjudication","code":"copay","display":"CoPay"}]},"amount":{"value":3200,"currency":"KRW"}},{"category":{"coding":[{"system":"http://terminology.hl7.org/CodeSystem/adjudication","code":"benefit","display":"Benefit Amount"}]},"amount":{"value":7700,"currency":"KRW"}}]}},{"resource":{"resourceType":"ExplanationOfBenefit","id":"17000005","meta":{"profile":["https://simplifier.net/myhealthway/StructureDefinition/PublicExplanationOfBenefit"]},"identifier":[{"system":"리소스식별자(미정)","value":"3d6e9e46-641a-4538-bfae-8463f73ede51"}],"contained":[{"resourceType":"Organization","id":"17100001","type":[{"coding":[{"system":"미정","code":"미정","display":"보험사"}],"text":"보험사"}],"name":"국민건강보험공단"},{"resourceType":"Organization","id":"17100002","type":[{"coding":[{"system":"미정","code":"미정","display":"병의원"}],"text":"병의원"}],"name":"믿음내과의원","address":[{"text":"성남시 분당구"}]},{"resourceType":"Coverage","id":"17300001","status":"active","beneficiary":{"reference":"Patient/10000000","resource":{"resourceType":"Patient","id":"10000000","meta":{"profile":["https://simplifier.net/myhealthway/StructureDefinition/PublicPatient"]},"identifier":[{"type":{"coding":[{"system":"http://myhealthway.go.kr(가칭)","code":"MHID"}]},"system":"미정","value":"10237551"},{"type":{"coding":[{"system":"http://terminology.hl7.org/CodeSystem/v2-0203","code":"NNKOR"}]},"system":"http://mois.go.kr/rnn","value":"0502184******"}],"name":[{"text":"김민선"}]}},"payor":[{"reference":"Organization/17100002","resource":{"resourceType":"Organization","id":"17100002","type":[{"coding":[{"system":"미정","code":"미정","display":"병의원"}],"text":"병의원"}],"name":"믿음내과의원","address":[{"text":"성남시 분당구"}]}}]}],"status":"active","type":{"coding":[{"system":"http://terminology.hl7.org/CodeSystem/claim-type","code":"institutional","display":"institutional"}]},"use":"claim","patient":{"reference":"Patient/10000000","resource":{"resourceType":"Patient","id":"10000000","meta":{"profile":["https://simplifier.net/myhealthway/StructureDefinition/PublicPatient"]},"identifier":[{"type":{"coding":[{"system":"http://myhealthway.go.kr(가칭)","code":"MHID"}]},"system":"미정","value":"10237551"},{"type":{"coding":[{"system":"http://terminology.hl7.org/CodeSystem/v2-0203","code":"NNKOR"}]},"system":"http://mois.go.kr/rnn","value":"0502184******"}],"name":[{"text":"김민선"}]}},"billablePeriod":{"start":"2024-12-09"},"created":"2024-12-09","insurer":{"reference":"Organization/17100001","resource":{"resourceType":"Organization","id":"17100001","type":[{"coding":[{"system":"미정","code":"미정","display":"보험사"}],"text":"보험사"}],"name":"국민건강보험공단"}},"provider":{"reference":"Organization/17100002","resource":{"resourceType":"Organization","id":"17100002","type":[{"coding":[{"system":"미정","code":"미정","display":"병의원"}],"text":"병의원"}],"name":"믿음내과의원","address":[{"text":"성남시 분당구"}]}},"outcome":"complete","supportingInfo":[{"sequence":1,"category":{"coding":[{"system":"http://terminology.hl7.org/CodeSystem/claiminformationcategory","code":"hospitalized","display":"Hosptialized"}]},"code":{"text":"1"}},{"sequence":2,"category":{"coding":[{"system":"http://terminology.hl7.org/CodeSystem/claiminformationcategory","code":"related","display":"Related Service"}]},"code":{"text":"1"}},{"sequence":3,"category":{"coding":[{"system":"http://terminology.hl7.org/CodeSystem/claiminformationcategory","code":"other","display":"Other"}]},"code":{"text":"1"}}],"total":[{"category":{"coding":[{"system":"http://terminology.hl7.org/CodeSystem/adjudication","code":"copay","display":"CoPay"}]},"amount":{"value":5200,"currency":"KRW"}},{"category":{"coding":[{"system":"http://terminology.hl7.org/CodeSystem/adjudication","code":"benefit","display":"Benefit Amount"}]},"amount":{"value":12410,"currency":"KRW"}}]}},{"resource":{"resourceType":"ExplanationOfBenefit","id":"17000006","meta":{"profile":["https://simplifier.net/myhealthway/StructureDefinition/PublicExplanationOfBenefit"]},"identifier":[{"system":"리소스식별자(미정)","value":"182409d3-b743-4356-9a65-ecbdf6a4cca3"}],"contained":[{"resourceType":"Organization","id":"17100001","type":[{"coding":[{"system":"미정","code":"미정","display":"보험사"}],"text":"보험사"}],"name":"국민건강보험공단"},{"resourceType":"Organization","id":"17100002","type":[{"coding":[{"system":"미정","code":"미정","display":"약국"}],"text":"약국"}],"name":"휴베이스봄약국","address":[{"text":"성남시 분당구"}]},{"resourceType":"Coverage","id":"17300001","status":"active","beneficiary":{"reference":"Patient/10000000","resource":{"resourceType":"Patient","id":"10000000","meta":{"profile":["https://simplifier.net/myhealthway/StructureDefinition/PublicPatient"]},"identifier":[{"type":{"coding":[{"system":"http://myhealthway.go.kr(가칭)","code":"MHID"}]},"system":"미정","value":"10237551"},{"type":{"coding":[{"system":"http://terminology.hl7.org/CodeSystem/v2-0203","code":"NNKOR"}]},"system":"http://mois.go.kr/rnn","value":"0502184******"}],"name":[{"text":"김민선"}]}},"payor":[{"reference":"Organization/17100002","resource":{"resourceType":"Organization","id":"17100002","type":[{"coding":[{"system":"미정","code":"미정","display":"약국"}],"text":"약국"}],"name":"휴베이스봄약국","address":[{"text":"성남시 분당구"}]}}]}],"status":"active","type":{"coding":[{"system":"http://terminology.hl7.org/CodeSystem/claim-type","code":"pharmacy","display":"pharmacy"}]},"use":"claim","patient":{"reference":"Patient/10000000","resource":{"resourceType":"Patient","id":"10000000","meta":{"profile":["https://simplifier.net/myhealthway/StructureDefinition/PublicPatient"]},"identifier":[{"type":{"coding":[{"system":"http://myhealthway.go.kr(가칭)","code":"MHID"}]},"system":"미정","value":"10237551"},{"type":{"coding":[{"system":"http://terminology.hl7.org/CodeSystem/v2-0203","code":"NNKOR"}]},"system":"http://mois.go.kr/rnn","value":"0502184******"}],"name":[{"text":"김민선"}]}},"billablePeriod":{"start":"2024-12-09"},"created":"2024-12-09","insurer":{"reference":"Organization/17100001","resource":{"resourceType":"Organization","id":"17100001","type":[{"coding":[{"system":"미정","code":"미정","display":"보험사"}],"text":"보험사"}],"name":"국민건강보험공단"}},"provider":{"reference":"Organization/17100002","resource":{"resourceType":"Organization","id":"17100002","type":[{"coding":[{"system":"미정","code":"미정","display":"약국"}],"text":"약국"}],"name":"휴베이스봄약국","address":[{"text":"성남시 분당구"}]}},"outcome":"complete","supportingInfo":[{"sequence":1,"category":{"coding":[{"system":"http://terminology.hl7.org/CodeSystem/claiminformationcategory","code":"hospitalized","display":"Hosptialized"}]},"code":{"text":"1"}},{"sequence":2,"category":{"coding":[{"system":"http://terminology.hl7.org/CodeSystem/claiminformationcategory","code":"related","display":"Related Service"}]},"code":{"text":"1"}},{"sequence":3,"category":{"coding":[{"system":"http://terminology.hl7.org/CodeSystem/claiminformationcategory","code":"other","display":"Other"}]},"code":{"text":"7"}}],"total":[{"category":{"coding":[{"system":"http://terminology.hl7.org/CodeSystem/adjudication","code":"copay","display":"CoPay"}]},"amount":{"value":4300,"currency":"KRW"}},{"category":{"coding":[{"system":"http://terminology.hl7.org/CodeSystem/adjudication","code":"benefit","display":"Benefit Amount"}]},"amount":{"value":10100,"currency":"KRW"}}]}},{"resource":{"resourceType":"ExplanationOfBenefit","id":"17000008","meta":{"profile":["https://simplifier.net/myhealthway/StructureDefinition/PublicExplanationOfBenefit"]},"identifier":[{"system":"리소스식별자(미정)","value":"d8153ee1-5dd8-4b2b-9b7b-1e903d9c8879"}],"contained":[{"resourceType":"Organization","id":"17100001","type":[{"coding":[{"system":"미정","code":"미정","display":"보험사"}],"text":"보험사"}],"name":"국민건강보험공단"},{"resourceType":"Organization","id":"17100002","type":[{"coding":[{"system":"미정","code":"미정","display":"약국"}],"text":"약국"}],"name":"다솜약국","address":[{"text":"성남시 분당구"}]},{"resourceType":"Coverage","id":"17300001","status":"active","beneficiary":{"reference":"Patient/10000000","resource":{"resourceType":"Patient","id":"10000000","meta":{"profile":["https://simplifier.net/myhealthway/StructureDefinition/PublicPatient"]},"identifier":[{"type":{"coding":[{"system":"http://myhealthway.go.kr(가칭)","code":"MHID"}]},"system":"미정","value":"10237551"},{"type":{"coding":[{"system":"http://terminology.hl7.org/CodeSystem/v2-0203","code":"NNKOR"}]},"system":"http://mois.go.kr/rnn","value":"0502184******"}],"name":[{"text":"김민선"}]}},"payor":[{"reference":"Organization/17100002","resource":{"resourceType":"Organization","id":"17100002","type":[{"coding":[{"system":"미정","code":"미정","display":"약국"}],"text":"약국"}],"name":"다솜약국","address":[{"text":"성남시 분당구"}]}}]}],"status":"active","type":{"coding":[{"system":"http://terminology.hl7.org/CodeSystem/claim-type","code":"pharmacy","display":"pharmacy"}]},"use":"claim","patient":{"reference":"Patient/10000000","resource":{"resourceType":"Patient","id":"10000000","meta":{"profile":["https://simplifier.net/myhealthway/StructureDefinition/PublicPatient"]},"identifier":[{"type":{"coding":[{"system":"http://myhealthway.go.kr(가칭)","code":"MHID"}]},"system":"미정","value":"10237551"},{"type":{"coding":[{"system":"http://terminology.hl7.org/CodeSystem/v2-0203","code":"NNKOR"}]},"system":"http://mois.go.kr/rnn","value":"0502184******"}],"name":[{"text":"김민선"}]}},"billablePeriod":{"start":"2024-12-03"},"created":"2024-12-03","insurer":{"reference":"Organization/17100001","resource":{"resourceType":"Organization","id":"17100001","type":[{"coding":[{"system":"미정","code":"미정","display":"보험사"}],"text":"보험사"}],"name":"국민건강보험공단"}},"provider":{"reference":"Organization/17100002","resource":{"resourceType":"Organization","id":"17100002","type":[{"coding":[{"system":"미정","code":"미정","display":"약국"}],"text":"약국"}],"name":"다솜약국","address":[{"text":"성남시 분당구"}]}},"outcome":"complete","supportingInfo":[{"sequence":1,"category":{"coding":[{"system":"http://terminology.hl7.org/CodeSystem/claiminformationcategory","code":"hospitalized","display":"Hosptialized"}]},"code":{"text":"1"}},{"sequence":2,"category":{"coding":[{"system":"http://terminology.hl7.org/CodeSystem/claiminformationcategory","code":"related","display":"Related Service"}]},"code":{"text":"1"}},{"sequence":3,"category":{"coding":[{"system":"http://terminology.hl7.org/CodeSystem/claiminformationcategory","code":"other","display":"Other"}]},"code":{"text":"7"}}],"total":[{"category":{"coding":[{"system":"http://terminology.hl7.org/CodeSystem/adjudication","code":"copay","display":"CoPay"}]},"amount":{"value":4800,"currency":"KRW"}},{"category":{"coding":[{"system":"http://terminology.hl7.org/CodeSystem/adjudication","code":"benefit","display":"Benefit Amount"}]},"amount":{"value":11509,"currency":"KRW"}}]}},{"resource":{"resourceType":"ExplanationOfBenefit","id":"17000007","meta":{"profile":["https://simplifier.net/myhealthway/StructureDefinition/PublicExplanationOfBenefit"]},"identifier":[{"system":"리소스식별자(미정)","value":"dcd9a40a-51f2-45a6-9d44-c33556a82c45"}],"contained":[{"resourceType":"Organization","id":"17100001","type":[{"coding":[{"system":"미정","code":"미정","display":"보험사"}],"text":"보험사"}],"name":"국민건강보험공단"},{"resourceType":"Organization","id":"17100002","type":[{"coding":[{"system":"미정","code":"미정","display":"병의원"}],"text":"병의원"}],"name":"이봉구피부과의원","address":[{"text":"성남시 분당구"}]},{"resourceType":"Coverage","id":"17300001","status":"active","beneficiary":{"reference":"Patient/10000000","resource":{"resourceType":"Patient","id":"10000000","meta":{"profile":["https://simplifier.net/myhealthway/StructureDefinition/PublicPatient"]},"identifier":[{"type":{"coding":[{"system":"http://myhealthway.go.kr(가칭)","code":"MHID"}]},"system":"미정","value":"10237551"},{"type":{"coding":[{"system":"http://terminology.hl7.org/CodeSystem/v2-0203","code":"NNKOR"}]},"system":"http://mois.go.kr/rnn","value":"0502184******"}],"name":[{"text":"김민선"}]}},"payor":[{"reference":"Organization/17100002","resource":{"resourceType":"Organization","id":"17100002","type":[{"coding":[{"system":"미정","code":"미정","display":"병의원"}],"text":"병의원"}],"name":"이봉구피부과의원","address":[{"text":"성남시 분당구"}]}}]}],"status":"active","type":{"coding":[{"system":"http://terminology.hl7.org/CodeSystem/claim-type","code":"institutional","display":"institutional"}]},"use":"claim","patient":{"reference":"Patient/10000000","resource":{"resourceType":"Patient","id":"10000000","meta":{"profile":["https://simplifier.net/myhealthway/StructureDefinition/PublicPatient"]},"identifier":[{"type":{"coding":[{"system":"http://myhealthway.go.kr(가칭)","code":"MHID"}]},"system":"미정","value":"10237551"},{"type":{"coding":[{"system":"http://terminology.hl7.org/CodeSystem/v2-0203","code":"NNKOR"}]},"system":"http://mois.go.kr/rnn","value":"0502184******"}],"name":[{"text":"김민선"}]}},"billablePeriod":{"start":"2024-12-03"},"created":"2024-12-03","insurer":{"reference":"Organization/17100001","resource":{"resourceType":"Organization","id":"17100001","type":[{"coding":[{"system":"미정","code":"미정","display":"보험사"}],"text":"보험사"}],"name":"국민건강보험공단"}},"provider":{"reference":"Organization/17100002","resource":{"resourceType":"Organization","id":"17100002","type":[{"coding":[{"system":"미정","code":"미정","display":"병의원"}],"text":"병의원"}],"name":"이봉구피부과의원","address":[{"text":"성남시 분당구"}]}},"outcome":"complete","supportingInfo":[{"sequence":1,"category":{"coding":[{"system":"http://terminology.hl7.org/CodeSystem/claiminformationcategory","code":"hospitalized","display":"Hosptialized"}]},"code":{"text":"1"}},{"sequence":2,"category":{"coding":[{"system":"http://terminology.hl7.org/CodeSystem/claiminformationcategory","code":"related","display":"Related Service"}]},"code":{"text":"1"}},{"sequence":3,"category":{"coding":[{"system":"http://terminology.hl7.org/CodeSystem/claiminformationcategory","code":"other","display":"Other"}]},"code":{"text":"1"}}],"total":[{"category":{"coding":[{"system":"http://terminology.hl7.org/CodeSystem/adjudication","code":"copay","display":"CoPay"}]},"amount":{"value":5200,"currency":"KRW"}},{"category":{"coding":[{"system":"http://terminology.hl7.org/CodeSystem/adjudication","code":"benefit","display":"Benefit Amount"}]},"amount":{"value":12410,"currency":"KRW"}}]}},{"resource":{"resourceType":"ExplanationOfBenefit","id":"17000009","meta":{"profile":["https://simplifier.net/myhealthway/StructureDefinition/PublicExplanationOfBenefit"]},"identifier":[{"system":"리소스식별자(미정)","value":"f8b8cf53-5bda-42d4-adb1-03114c17f9b7"}],"contained":[{"resourceType":"Organization","id":"17100001","type":[{"coding":[{"system":"미정","code":"미정","display":"보험사"}],"text":"보험사"}],"name":"국민건강보험공단"},{"resourceType":"Organization","id":"17100002","type":[{"coding":[{"system":"미정","code":"미정","display":"약국"}],"text":"약국"}],"name":"분당메디칼약국","address":[{"text":"성남시 분당구"}]},{"resourceType":"Coverage","id":"17300001","status":"active","beneficiary":{"reference":"Patient/10000000","resource":{"resourceType":"Patient","id":"10000000","meta":{"profile":["https://simplifier.net/myhealthway/StructureDefinition/PublicPatient"]},"identifier":[{"type":{"coding":[{"system":"http://myhealthway.go.kr(가칭)","code":"MHID"}]},"system":"미정","value":"10237551"},{"type":{"coding":[{"system":"http://terminology.hl7.org/CodeSystem/v2-0203","code":"NNKOR"}]},"system":"http://mois.go.kr/rnn","value":"0502184******"}],"name":[{"text":"김민선"}]}},"payor":[{"reference":"Organization/17100002","resource":{"resourceType":"Organization","id":"17100002","type":[{"coding":[{"system":"미정","code":"미정","display":"약국"}],"text":"약국"}],"name":"분당메디칼약국","address":[{"text":"성남시 분당구"}]}}]}],"status":"active","type":{"coding":[{"system":"http://terminology.hl7.org/CodeSystem/claim-type","code":"pharmacy","display":"pharmacy"}]},"use":"claim","patient":{"reference":"Patient/10000000","resource":{"resourceType":"Patient","id":"10000000","meta":{"profile":["https://simplifier.net/myhealthway/StructureDefinition/PublicPatient"]},"identifier":[{"type":{"coding":[{"system":"http://myhealthway.go.kr(가칭)","code":"MHID"}]},"system":"미정","value":"10237551"},{"type":{"coding":[{"system":"http://terminology.hl7.org/CodeSystem/v2-0203","code":"NNKOR"}]},"system":"http://mois.go.kr/rnn","value":"0502184******"}],"name":[{"text":"김민선"}]}},"billablePeriod":{"start":"2024-10-26"},"created":"2024-10-26","insurer":{"reference":"Organization/17100001","resource":{"resourceType":"Organization","id":"17100001","type":[{"coding":[{"system":"미정","code":"미정","display":"보험사"}],"text":"보험사"}],"name":"국민건강보험공단"}},"provider":{"reference":"Organization/17100002","resource":{"resourceType":"Organization","id":"17100002","type":[{"coding":[{"system":"미정","code":"미정","display":"약국"}],"text":"약국"}],"name":"분당메디칼약국","address":[{"text":"성남시 분당구"}]}},"outcome":"complete","supportingInfo":[{"sequence":1,"category":{"coding":[{"system":"http://terminology.hl7.org/CodeSystem/claiminformationcategory","code":"hospitalized","display":"Hosptialized"}]},"code":{"text":"1"}},{"sequence":2,"category":{"coding":[{"system":"http://terminology.hl7.org/CodeSystem/claiminformationcategory","code":"related","display":"Related Service"}]},"code":{"text":"1"}},{"sequence":3,"category":{"coding":[{"system":"http://terminology.hl7.org/CodeSystem/claiminformationcategory","code":"other","display":"Other"}]},"code":{"text":"90"}}],"total":[{"category":{"coding":[{"system":"http://terminology.hl7.org/CodeSystem/adjudication","code":"copay","display":"CoPay"}]},"amount":{"value":42400,"currency":"KRW"}},{"category":{"coding":[{"system":"http://terminology.hl7.org/CodeSystem/adjudication","code":"benefit","display":"Benefit Amount"}]},"amount":{"value":99030,"currency":"KRW"}}]}},{"resource":{"resourceType":"ExplanationOfBenefit","id":"17000010","meta":{"profile":["https://simplifier.net/myhealthway/StructureDefinition/PublicExplanationOfBenefit"]},"identifier":[{"system":"리소스식별자(미정)","value":"213e6c09-78c0-4540-bbb5-3dd0a957435f"}],"contained":[{"resourceType":"Organization","id":"17100001","type":[{"coding":[{"system":"미정","code":"미정","display":"보험사"}],"text":"보험사"}],"name":"국민건강보험공단"},{"resourceType":"Organization","id":"17100002","type":[{"coding":[{"system":"미정","code":"미정","display":"병의원"}],"text":"병의원"}],"name":"분당서울대학교병원","address":[{"text":"성남시 분당구"}]},{"resourceType":"Coverage","id":"17300001","status":"active","beneficiary":{"reference":"Patient/10000000","resource":{"resourceType":"Patient","id":"10000000","meta":{"profile":["https://simplifier.net/myhealthway/StructureDefinition/PublicPatient"]},"identifier":[{"type":{"coding":[{"system":"http://myhealthway.go.kr(가칭)","code":"MHID"}]},"system":"미정","value":"10237551"},{"type":{"coding":[{"system":"http://terminology.hl7.org/CodeSystem/v2-0203","code":"NNKOR"}]},"system":"http://mois.go.kr/rnn","value":"0502184******"}],"name":[{"text":"김민선"}]}},"payor":[{"reference":"Organization/17100002","resource":{"resourceType":"Organization","id":"17100002","type":[{"coding":[{"system":"미정","code":"미정","display":"병의원"}],"text":"병의원"}],"name":"분당서울대학교병원","address":[{"text":"성남시 분당구"}]}}]}],"status":"active","type":{"coding":[{"system":"http://terminology.hl7.org/CodeSystem/claim-type","code":"institutional","display":"institutional"}]},"use":"claim","patient":{"reference":"Patient/10000000","resource":{"resourceType":"Patient","id":"10000000","meta":{"profile":["https://simplifier.net/myhealthway/StructureDefinition/PublicPatient"]},"identifier":[{"type":{"coding":[{"system":"http://myhealthway.go.kr(가칭)","code":"MHID"}]},"system":"미정","value":"10237551"},{"type":{"coding":[{"system":"http://terminology.hl7.org/CodeSystem/v2-0203","code":"NNKOR"}]},"system":"http://mois.go.kr/rnn","value":"0502184******"}],"name":[{"text":"김민선"}]}},"billablePeriod":{"start":"2024-10-21"},"created":"2024-10-21","insurer":{"reference":"Organization/17100001","resource":{"resourceType":"Organization","id":"17100001","type":[{"coding":[{"system":"미정","code":"미정","display":"보험사"}],"text":"보험사"}],"name":"국민건강보험공단"}},"provider":{"reference":"Organization/17100002","resource":{"resourceType":"Organization","id":"17100002","type":[{"coding":[{"system":"미정","code":"미정","display":"병의원"}],"text":"병의원"}],"name":"분당서울대학교병원","address":[{"text":"성남시 분당구"}]}},"outcome":"complete","supportingInfo":[{"sequence":1,"category":{"coding":[{"system":"http://terminology.hl7.org/CodeSystem/claiminformationcategory","code":"hospitalized","display":"Hosptialized"}]},"code":{"text":"1"}},{"sequence":2,"category":{"coding":[{"system":"http://terminology.hl7.org/CodeSystem/claiminformationcategory","code":"related","display":"Related Service"}]},"code":{"text":"1"}},{"sequence":3,"category":{"coding":[{"system":"http://terminology.hl7.org/CodeSystem/claiminformationcategory","code":"other","display":"Other"}]},"code":{"text":"1"}}],"total":[{"category":{"coding":[{"system":"http://terminology.hl7.org/CodeSystem/adjudication","code":"copay","display":"CoPay"}]},"amount":{"value":20900,"currency":"KRW"}},{"category":{"coding":[{"system":"http://terminology.hl7.org/CodeSystem/adjudication","code":"benefit","display":"Benefit Amount"}]},"amount":{"value":3330,"currency":"KRW"}}]}},{"resource":{"resourceType":"ExplanationOfBenefit","id":"17000011","meta":{"profile":["https://simplifier.net/myhealthway/StructureDefinition/PublicExplanationOfBenefit"]},"identifier":[{"system":"리소스식별자(미정)","value":"d86f2169-99d7-498e-be8c-ecbcc646e24c"}],"contained":[{"resourceType":"Organization","id":"17100001","type":[{"coding":[{"system":"미정","code":"미정","display":"보험사"}],"text":"보험사"}],"name":"국민건강보험공단"},{"resourceType":"Organization","id":"17100002","type":[{"coding":[{"system":"미정","code":"미정","display":"병의원"}],"text":"병의원"}],"name":"서울복음치과의원","address":[{"text":"영등포구 국제금융로"}]},{"resourceType":"Coverage","id":"17300001","status":"active","beneficiary":{"reference":"Patient/10000000","resource":{"resourceType":"Patient","id":"10000000","meta":{"profile":["https://simplifier.net/myhealthway/StructureDefinition/PublicPatient"]},"identifier":[{"type":{"coding":[{"system":"http://myhealthway.go.kr(가칭)","code":"MHID"}]},"system":"미정","value":"10237551"},{"type":{"coding":[{"system":"http://terminology.hl7.org/CodeSystem/v2-0203","code":"NNKOR"}]},"system":"http://mois.go.kr/rnn","value":"0502184******"}],"name":[{"text":"김민선"}]}},"payor":[{"reference":"Organization/17100002","resource":{"resourceType":"Organization","id":"17100002","type":[{"coding":[{"system":"미정","code":"미정","display":"병의원"}],"text":"병의원"}],"name":"서울복음치과의원","address":[{"text":"영등포구 국제금융로"}]}}]}],"status":"active","type":{"coding":[{"system":"http://terminology.hl7.org/CodeSystem/claim-type","code":"institutional","display":"institutional"}]},"use":"claim","patient":{"reference":"Patient/10000000","resource":{"resourceType":"Patient","id":"10000000","meta":{"profile":["https://simplifier.net/myhealthway/StructureDefinition/PublicPatient"]},"identifier":[{"type":{"coding":[{"system":"http://myhealthway.go.kr(가칭)","code":"MHID"}]},"system":"미정","value":"10237551"},{"type":{"coding":[{"system":"http://terminology.hl7.org/CodeSystem/v2-0203","code":"NNKOR"}]},"system":"http://mois.go.kr/rnn","value":"0502184******"}],"name":[{"text":"김민선"}]}},"billablePeriod":{"start":"2024-09-23"},"created":"2024-09-23","insurer":{"reference":"Organization/17100001","resource":{"resourceType":"Organization","id":"17100001","type":[{"coding":[{"system":"미정","code":"미정","display":"보험사"}],"text":"보험사"}],"name":"국민건강보험공단"}},"provider":{"reference":"Organization/17100002","resource":{"resourceType":"Organization","id":"17100002","type":[{"coding":[{"system":"미정","code":"미정","display":"병의원"}],"text":"병의원"}],"name":"서울복음치과의원","address":[{"text":"영등포구 국제금융로"}]}},"outcome":"complete","supportingInfo":[{"sequence":1,"category":{"coding":[{"system":"http://terminology.hl7.org/CodeSystem/claiminformationcategory","code":"hospitalized","display":"Hosptialized"}]},"code":{"text":"1"}},{"sequence":2,"category":{"coding":[{"system":"http://terminology.hl7.org/CodeSystem/claiminformationcategory","code":"related","display":"Related Service"}]},"code":{"text":"0"}},{"sequence":3,"category":{"coding":[{"system":"http://terminology.hl7.org/CodeSystem/claiminformationcategory","code":"other","display":"Other"}]},"code":{"text":"1"}}],"total":[{"category":{"coding":[{"system":"http://terminology.hl7.org/CodeSystem/adjudication","code":"copay","display":"CoPay"}]},"amount":{"value":4500,"currency":"KRW"}},{"category":{"coding":[{"system":"http://terminology.hl7.org/CodeSystem/adjudication","code":"benefit","display":"Benefit Amount"}]},"amount":{"value":10580,"currency":"KRW"}}]}},{"resource":{"resourceType":"ExplanationOfBenefit","id":"17000012","meta":{"profile":["https://simplifier.net/myhealthway/StructureDefinition/PublicExplanationOfBenefit"]},"identifier":[{"system":"리소스식별자(미정)","value":"6ada04c8-5a3c-405e-8949-60ee24abc833"}],"contained":[{"resourceType":"Organization","id":"17100001","type":[{"coding":[{"system":"미정","code":"미정","display":"보험사"}],"text":"보험사"}],"name":"국민건강보험공단"},{"resourceType":"Organization","id":"17100002","type":[{"coding":[{"system":"미정","code":"미정","display":"병의원"}],"text":"병의원"}],"name":"서울복음치과의원","address":[{"text":"영등포구 국제금융로"}]},{"resourceType":"Coverage","id":"17300001","status":"active","beneficiary":{"reference":"Patient/10000000","resource":{"resourceType":"Patient","id":"10000000","meta":{"profile":["https://simplifier.net/myhealthway/StructureDefinition/PublicPatient"]},"identifier":[{"type":{"coding":[{"system":"http://myhealthway.go.kr(가칭)","code":"MHID"}]},"system":"미정","value":"10237551"},{"type":{"coding":[{"system":"http://terminology.hl7.org/CodeSystem/v2-0203","code":"NNKOR"}]},"system":"http://mois.go.kr/rnn","value":"0502184******"}],"name":[{"text":"김민선"}]}},"payor":[{"reference":"Organization/17100002","resource":{"resourceType":"Organization","id":"17100002","type":[{"coding":[{"system":"미정","code":"미정","display":"병의원"}],"text":"병의원"}],"name":"서울복음치과의원","address":[{"text":"영등포구 국제금융로"}]}}]}],"status":"active","type":{"coding":[{"system":"http://terminology.hl7.org/CodeSystem/claim-type","code":"institutional","display":"institutional"}]},"use":"claim","patient":{"reference":"Patient/10000000","resource":{"resourceType":"Patient","id":"10000000","meta":{"profile":["https://simplifier.net/myhealthway/StructureDefinition/PublicPatient"]},"identifier":[{"type":{"coding":[{"system":"http://myhealthway.go.kr(가칭)","code":"MHID"}]},"system":"미정","value":"10237551"},{"type":{"coding":[{"system":"http://terminology.hl7.org/CodeSystem/v2-0203","code":"NNKOR"}]},"system":"http://mois.go.kr/rnn","value":"0502184******"}],"name":[{"text":"김민선"}]}},"billablePeriod":{"start":"2024-09-19"},"created":"2024-09-19","insurer":{"reference":"Organization/17100001","resource":{"resourceType":"Organization","id":"17100001","type":[{"coding":[{"system":"미정","code":"미정","display":"보험사"}],"text":"보험사"}],"name":"국민건강보험공단"}},"provider":{"reference":"Organization/17100002","resource":{"resourceType":"Organization","id":"17100002","type":[{"coding":[{"system":"미정","code":"미정","display":"병의원"}],"text":"병의원"}],"name":"서울복음치과의원","address":[{"text":"영등포구 국제금융로"}]}},"outcome":"complete","supportingInfo":[{"sequence":1,"category":{"coding":[{"system":"http://terminology.hl7.org/CodeSystem/claiminformationcategory","code":"hospitalized","display":"Hosptialized"}]},"code":{"text":"1"}},{"sequence":2,"category":{"coding":[{"system":"http://terminology.hl7.org/CodeSystem/claiminformationcategory","code":"related","display":"Related Service"}]},"code":{"text":"0"}},{"sequence":3,"category":{"coding":[{"system":"http://terminology.hl7.org/CodeSystem/claiminformationcategory","code":"other","display":"Other"}]},"code":{"text":"1"}}],"total":[{"category":{"coding":[{"system":"http://terminology.hl7.org/CodeSystem/adjudication","code":"copay","display":"CoPay"}]},"amount":{"value":4500,"currency":"KRW"}},{"category":{"coding":[{"system":"http://terminology.hl7.org/CodeSystem/adjudication","code":"benefit","display":"Benefit Amount"}]},"amount":{"value":10580,"currency":"KRW"}}]}},{"resource":{"resourceType":"ExplanationOfBenefit","id":"17000013","meta":{"profile":["https://simplifier.net/myhealthway/StructureDefinition/PublicExplanationOfBenefit"]},"identifier":[{"system":"리소스식별자(미정)","value":"f7c1e15a-064d-4b00-8a51-2a0a01f16b92"}],"contained":[{"resourceType":"Organization","id":"17100001","type":[{"coding":[{"system":"미정","code":"미정","display":"보험사"}],"text":"보험사"}],"name":"국민건강보험공단"},{"resourceType":"Organization","id":"17100002","type":[{"coding":[{"system":"미정","code":"미정","display":"병의원"}],"text":"병의원"}],"name":"서울복음치과의원","address":[{"text":"영등포구 국제금융로"}]},{"resourceType":"Coverage","id":"17300001","status":"active","beneficiary":{"reference":"Patient/10000000","resource":{"resourceType":"Patient","id":"10000000","meta":{"profile":["https://simplifier.net/myhealthway/StructureDefinition/PublicPatient"]},"identifier":[{"type":{"coding":[{"system":"http://myhealthway.go.kr(가칭)","code":"MHID"}]},"system":"미정","value":"10237551"},{"type":{"coding":[{"system":"http://terminology.hl7.org/CodeSystem/v2-0203","code":"NNKOR"}]},"system":"http://mois.go.kr/rnn","value":"0502184******"}],"name":[{"text":"김민선"}]}},"payor":[{"reference":"Organization/17100002","resource":{"resourceType":"Organization","id":"17100002","type":[{"coding":[{"system":"미정","code":"미정","display":"병의원"}],"text":"병의원"}],"name":"서울복음치과의원","address":[{"text":"영등포구 국제금융로"}]}}]}],"status":"active","type":{"coding":[{"system":"http://terminology.hl7.org/CodeSystem/claim-type","code":"institutional","display":"institutional"}]},"use":"claim","patient":{"reference":"Patient/10000000","resource":{"resourceType":"Patient","id":"10000000","meta":{"profile":["https://simplifier.net/myhealthway/StructureDefinition/PublicPatient"]},"identifier":[{"type":{"coding":[{"system":"http://myhealthway.go.kr(가칭)","code":"MHID"}]},"system":"미정","value":"10237551"},{"type":{"coding":[{"system":"http://terminology.hl7.org/CodeSystem/v2-0203","code":"NNKOR"}]},"system":"http://mois.go.kr/rnn","value":"0502184******"}],"name":[{"text":"김민선"}]}},"billablePeriod":{"start":"2024-09-09"},"created":"2024-09-09","insurer":{"reference":"Organization/17100001","resource":{"resourceType":"Organization","id":"17100001","type":[{"coding":[{"system":"미정","code":"미정","display":"보험사"}],"text":"보험사"}],"name":"국민건강보험공단"}},"provider":{"reference":"Organization/17100002","resource":{"resourceType":"Organization","id":"17100002","type":[{"coding":[{"system":"미정","code":"미정","display":"병의원"}],"text":"병의원"}],"name":"서울복음치과의원","address":[{"text":"영등포구 국제금융로"}]}},"outcome":"complete","supportingInfo":[{"sequence":1,"category":{"coding":[{"system":"http://terminology.hl7.org/CodeSystem/claiminformationcategory","code":"hospitalized","display":"Hosptialized"}]},"code":{"text":"1"}},{"sequence":2,"category":{"coding":[{"system":"http://terminology.hl7.org/CodeSystem/claiminformationcategory","code":"related","display":"Related Service"}]},"code":{"text":"0"}},{"sequence":3,"category":{"coding":[{"system":"http://terminology.hl7.org/CodeSystem/claiminformationcategory","code":"other","display":"Other"}]},"code":{"text":"1"}}],"total":[{"category":{"coding":[{"system":"http://terminology.hl7.org/CodeSystem/adjudication","code":"copay","display":"CoPay"}]},"amount":{"value":8500,"currency":"KRW"}},{"category":{"coding":[{"system":"http://terminology.hl7.org/CodeSystem/adjudication","code":"benefit","display":"Benefit Amount"}]},"amount":{"value":20020,"currency":"KRW"}}]}},{"resource":{"resourceType":"ExplanationOfBenefit","id":"17000014","meta":{"profile":["https://simplifier.net/myhealthway/StructureDefinition/PublicExplanationOfBenefit"]},"identifier":[{"system":"리소스식별자(미정)","value":"56563e34-1e53-43e8-b506-9d8aba3221dc"}],"contained":[{"resourceType":"Organization","id":"17100001","type":[{"coding":[{"system":"미정","code":"미정","display":"보험사"}],"text":"보험사"}],"name":"국민건강보험공단"},{"resourceType":"Organization","id":"17100002","type":[{"coding":[{"system":"미정","code":"미정","display":"병의원"}],"text":"병의원"}],"name":"서울복음치과의원","address":[{"text":"영등포구 국제금융로"}]},{"resourceType":"Coverage","id":"17300001","status":"active","beneficiary":{"reference":"Patient/10000000","resource":{"resourceType":"Patient","id":"10000000","meta":{"profile":["https://simplifier.net/myhealthway/StructureDefinition/PublicPatient"]},"identifier":[{"type":{"coding":[{"system":"http://myhealthway.go.kr(가칭)","code":"MHID"}]},"system":"미정","value":"10237551"},{"type":{"coding":[{"system":"http://terminology.hl7.org/CodeSystem/v2-0203","code":"NNKOR"}]},"system":"http://mois.go.kr/rnn","value":"0502184******"}],"name":[{"text":"김민선"}]}},"payor":[{"reference":"Organization/17100002","resource":{"resourceType":"Organization","id":"17100002","type":[{"coding":[{"system":"미정","code":"미정","display":"병의원"}],"text":"병의원"}],"name":"서울복음치과의원","address":[{"text":"영등포구 국제금융로"}]}}]}],"status":"active","type":{"coding":[{"system":"http://terminology.hl7.org/CodeSystem/claim-type","code":"institutional","display":"institutional"}]},"use":"claim","patient":{"reference":"Patient/10000000","resource":{"resourceType":"Patient","id":"10000000","meta":{"profile":["https://simplifier.net/myhealthway/StructureDefinition/PublicPatient"]},"identifier":[{"type":{"coding":[{"system":"http://myhealthway.go.kr(가칭)","code":"MHID"}]},"system":"미정","value":"10237551"},{"type":{"coding":[{"system":"http://terminology.hl7.org/CodeSystem/v2-0203","code":"NNKOR"}]},"system":"http://mois.go.kr/rnn","value":"0502184******"}],"name":[{"text":"김민선"}]}},"billablePeriod":{"start":"2024-09-06"},"created":"2024-09-06","insurer":{"reference":"Organization/17100001","resource":{"resourceType":"Organization","id":"17100001","type":[{"coding":[{"system":"미정","code":"미정","display":"보험사"}],"text":"보험사"}],"name":"국민건강보험공단"}},"provider":{"reference":"Organization/17100002","resource":{"resourceType":"Organization","id":"17100002","type":[{"coding":[{"system":"미정","code":"미정","display":"병의원"}],"text":"병의원"}],"name":"서울복음치과의원","address":[{"text":"영등포구 국제금융로"}]}},"outcome":"complete","supportingInfo":[{"sequence":1,"category":{"coding":[{"system":"http://terminology.hl7.org/CodeSystem/claiminformationcategory","code":"hospitalized","display":"Hosptialized"}]},"code":{"text":"1"}},{"sequence":2,"category":{"coding":[{"system":"http://terminology.hl7.org/CodeSystem/claiminformationcategory","code":"related","display":"Related Service"}]},"code":{"text":"0"}},{"sequence":3,"category":{"coding":[{"system":"http://terminology.hl7.org/CodeSystem/claiminformationcategory","code":"other","display":"Other"}]},"code":{"text":"1"}}],"total":[{"category":{"coding":[{"system":"http://terminology.hl7.org/CodeSystem/adjudication","code":"copay","display":"CoPay"}]},"amount":{"value":9000,"currency":"KRW"}},{"category":{"coding":[{"system":"http://terminology.hl7.org/CodeSystem/adjudication","code":"benefit","display":"Benefit Amount"}]},"amount":{"value":21290,"currency":"KRW"}}]}},{"resource":{"resourceType":"ExplanationOfBenefit","id":"17000015","meta":{"profile":["https://simplifier.net/myhealthway/StructureDefinition/PublicExplanationOfBenefit"]},"identifier":[{"system":"리소스식별자(미정)","value":"221f235a-79a6-4427-bf0c-ee2d2b65289b"}],"contained":[{"resourceType":"Organization","id":"17100001","type":[{"coding":[{"system":"미정","code":"미정","display":"보험사"}],"text":"보험사"}],"name":"국민건강보험공단"},{"resourceType":"Organization","id":"17100002","type":[{"coding":[{"system":"미정","code":"미정","display":"병의원"}],"text":"병의원"}],"name":"바른치과의원","address":[{"text":"관악구 남부순환로"}]},{"resourceType":"Coverage","id":"17300001","status":"active","beneficiary":{"reference":"Patient/10000000","resource":{"resourceType":"Patient","id":"10000000","meta":{"profile":["https://simplifier.net/myhealthway/StructureDefinition/PublicPatient"]},"identifier":[{"type":{"coding":[{"system":"http://myhealthway.go.kr(가칭)","code":"MHID"}]},"system":"미정","value":"10237551"},{"type":{"coding":[{"system":"http://terminology.hl7.org/CodeSystem/v2-0203","code":"NNKOR"}]},"system":"http://mois.go.kr/rnn","value":"0502184******"}],"name":[{"text":"김민선"}]}},"payor":[{"reference":"Organization/17100002","resource":{"resourceType":"Organization","id":"17100002","type":[{"coding":[{"system":"미정","code":"미정","display":"병의원"}],"text":"병의원"}],"name":"바른치과의원","address":[{"text":"관악구 남부순환로"}]}}]}],"status":"active","type":{"coding":[{"system":"http://terminology.hl7.org/CodeSystem/claim-type","code":"institutional","display":"institutional"}]},"use":"claim","patient":{"reference":"Patient/10000000","resource":{"resourceType":"Patient","id":"10000000","meta":{"profile":["https://simplifier.net/myhealthway/StructureDefinition/PublicPatient"]},"identifier":[{"type":{"coding":[{"system":"http://myhealthway.go.kr(가칭)","code":"MHID"}]},"system":"미정","value":"10237551"},{"type":{"coding":[{"system":"http://terminology.hl7.org/CodeSystem/v2-0203","code":"NNKOR"}]},"system":"http://mois.go.kr/rnn","value":"0502184******"}],"name":[{"text":"김민선"}]}},"billablePeriod":{"start":"2024-09-04"},"created":"2024-09-04","insurer":{"reference":"Organization/17100001","resource":{"resourceType":"Organization","id":"17100001","type":[{"coding":[{"system":"미정","code":"미정","display":"보험사"}],"text":"보험사"}],"name":"국민건강보험공단"}},"provider":{"reference":"Organization/17100002","resource":{"resourceType":"Organization","id":"17100002","type":[{"coding":[{"system":"미정","code":"미정","display":"병의원"}],"text":"병의원"}],"name":"바른치과의원","address":[{"text":"관악구 남부순환로"}]}},"outcome":"complete","supportingInfo":[{"sequence":1,"category":{"coding":[{"system":"http://terminology.hl7.org/CodeSystem/claiminformationcategory","code":"hospitalized","display":"Hosptialized"}]},"code":{"text":"1"}},{"sequence":2,"category":{"coding":[{"system":"http://terminology.hl7.org/CodeSystem/claiminformationcategory","code":"related","display":"Related Service"}]},"code":{"text":"0"}},{"sequence":3,"category":{"coding":[{"system":"http://terminology.hl7.org/CodeSystem/claiminformationcategory","code":"other","display":"Other"}]},"code":{"text":"1"}}],"total":[{"category":{"coding":[{"system":"http://terminology.hl7.org/CodeSystem/adjudication","code":"copay","display":"CoPay"}]},"amount":{"value":10700,"currency":"KRW"}},{"category":{"coding":[{"system":"http://terminology.hl7.org/CodeSystem/adjudication","code":"benefit","display":"Benefit Amount"}]},"amount":{"value":25170,"currency":"KRW"}}]}},{"resource":{"resourceType":"ExplanationOfBenefit","id":"17000016","meta":{"profile":["https://simplifier.net/myhealthway/StructureDefinition/PublicExplanationOfBenefit"]},"identifier":[{"system":"리소스식별자(미정)","value":"748c74ae-c060-44fe-bf9f-f104c3e70da7"}],"contained":[{"resourceType":"Organization","id":"17100001","type":[{"coding":[{"system":"미정","code":"미정","display":"보험사"}],"text":"보험사"}],"name":"국민건강보험공단"},{"resourceType":"Organization","id":"17100002","type":[{"coding":[{"system":"미정","code":"미정","display":"약국"}],"text":"약국"}],"name":"가까운대학 약국","address":[{"text":"성남시 분당구"}]},{"resourceType":"Coverage","id":"17300001","status":"active","beneficiary":{"reference":"Patient/10000000","resource":{"resourceType":"Patient","id":"10000000","meta":{"profile":["https://simplifier.net/myhealthway/StructureDefinition/PublicPatient"]},"identifier":[{"type":{"coding":[{"system":"http://myhealthway.go.kr(가칭)","code":"MHID"}]},"system":"미정","value":"10237551"},{"type":{"coding":[{"system":"http://terminology.hl7.org/CodeSystem/v2-0203","code":"NNKOR"}]},"system":"http://mois.go.kr/rnn","value":"0502184******"}],"name":[{"text":"김민선"}]}},"payor":[{"reference":"Organization/17100002","resource":{"resourceType":"Organization","id":"17100002","type":[{"coding":[{"system":"미정","code":"미정","display":"약국"}],"text":"약국"}],"name":"가까운대학 약국","address":[{"text":"성남시 분당구"}]}}]}],"status":"active","type":{"coding":[{"system":"http://terminology.hl7.org/CodeSystem/claim-type","code":"pharmacy","display":"pharmacy"}]},"use":"claim","patient":{"reference":"Patient/10000000","resource":{"resourceType":"Patient","id":"10000000","meta":{"profile":["https://simplifier.net/myhealthway/StructureDefinition/PublicPatient"]},"identifier":[{"type":{"coding":[{"system":"http://myhealthway.go.kr(가칭)","code":"MHID"}]},"system":"미정","value":"10237551"},{"type":{"coding":[{"system":"http://terminology.hl7.org/CodeSystem/v2-0203","code":"NNKOR"}]},"system":"http://mois.go.kr/rnn","value":"0502184******"}],"name":[{"text":"김민선"}]}},"billablePeriod":{"start":"2024-07-29"},"created":"2024-07-29","insurer":{"reference":"Organization/17100001","resource":{"resourceType":"Organization","id":"17100001","type":[{"coding":[{"system":"미정","code":"미정","display":"보험사"}],"text":"보험사"}],"name":"국민건강보험공단"}},"provider":{"reference":"Organization/17100002","resource":{"resourceType":"Organization","id":"17100002","type":[{"coding":[{"system":"미정","code":"미정","display":"약국"}],"text":"약국"}],"name":"가까운대학 약국","address":[{"text":"성남시 분당구"}]}},"outcome":"complete","supportingInfo":[{"sequence":1,"category":{"coding":[{"system":"http://terminology.hl7.org/CodeSystem/claiminformationcategory","code":"hospitalized","display":"Hosptialized"}]},"code":{"text":"1"}},{"sequence":2,"category":{"coding":[{"system":"http://terminology.hl7.org/CodeSystem/claiminformationcategory","code":"related","display":"Related Service"}]},"code":{"text":"1"}},{"sequence":3,"category":{"coding":[{"system":"http://terminology.hl7.org/CodeSystem/claiminformationcategory","code":"other","display":"Other"}]},"code":{"text":"90"}}],"total":[{"category":{"coding":[{"system":"http://terminology.hl7.org/CodeSystem/adjudication","code":"copay","display":"CoPay"}]},"amount":{"value":31100,"currency":"KRW"}},{"category":{"coding":[{"system":"http://terminology.hl7.org/CodeSystem/adjudication","code":"benefit","display":"Benefit Amount"}]},"amount":{"value":72710,"currency":"KRW"}}]}},{"resource":{"resourceType":"ExplanationOfBenefit","id":"17000017","meta":{"profile":["https://simplifier.net/myhealthway/StructureDefinition/PublicExplanationOfBenefit"]},"identifier":[{"system":"리소스식별자(미정)","value":"759b9abd-b7ab-4f6e-a59b-643d85edcdc8"}],"contained":[{"resourceType":"Organization","id":"17100001","type":[{"coding":[{"system":"미정","code":"미정","display":"보험사"}],"text":"보험사"}],"name":"국민건강보험공단"},{"resourceType":"Organization","id":"17100002","type":[{"coding":[{"system":"미정","code":"미정","display":"병의원"}],"text":"병의원"}],"name":"분당서울대학교병원","address":[{"text":"성남시 분당구"}]},{"resourceType":"Coverage","id":"17300001","status":"active","beneficiary":{"reference":"Patient/10000000","resource":{"resourceType":"Patient","id":"10000000","meta":{"profile":["https://simplifier.net/myhealthway/StructureDefinition/PublicPatient"]},"identifier":[{"type":{"coding":[{"system":"http://myhealthway.go.kr(가칭)","code":"MHID"}]},"system":"미정","value":"10237551"},{"type":{"coding":[{"system":"http://terminology.hl7.org/CodeSystem/v2-0203","code":"NNKOR"}]},"system":"http://mois.go.kr/rnn","value":"0502184******"}],"name":[{"text":"김민선"}]}},"payor":[{"reference":"Organization/17100002","resource":{"resourceType":"Organization","id":"17100002","type":[{"coding":[{"system":"미정","code":"미정","display":"병의원"}],"text":"병의원"}],"name":"분당서울대학교병원","address":[{"text":"성남시 분당구"}]}}]}],"status":"active","type":{"coding":[{"system":"http://terminology.hl7.org/CodeSystem/claim-type","code":"institutional","display":"institutional"}]},"use":"claim","patient":{"reference":"Patient/10000000","resource":{"resourceType":"Patient","id":"10000000","meta":{"profile":["https://simplifier.net/myhealthway/StructureDefinition/PublicPatient"]},"identifier":[{"type":{"coding":[{"system":"http://myhealthway.go.kr(가칭)","code":"MHID"}]},"system":"미정","value":"10237551"},{"type":{"coding":[{"system":"http://terminology.hl7.org/CodeSystem/v2-0203","code":"NNKOR"}]},"system":"http://mois.go.kr/rnn","value":"0502184******"}],"name":[{"text":"김민선"}]}},"billablePeriod":{"start":"2024-07-29"},"created":"2024-07-29","insurer":{"reference":"Organization/17100001","resource":{"resourceType":"Organization","id":"17100001","type":[{"coding":[{"system":"미정","code":"미정","display":"보험사"}],"text":"보험사"}],"name":"국민건강보험공단"}},"provider":{"reference":"Organization/17100002","resource":{"resourceType":"Organization","id":"17100002","type":[{"coding":[{"system":"미정","code":"미정","display":"병의원"}],"text":"병의원"}],"name":"분당서울대학교병원","address":[{"text":"성남시 분당구"}]}},"outcome":"complete","supportingInfo":[{"sequence":1,"category":{"coding":[{"system":"http://terminology.hl7.org/CodeSystem/claiminformationcategory","code":"hospitalized","display":"Hosptialized"}]},"code":{"text":"1"}},{"sequence":2,"category":{"coding":[{"system":"http://terminology.hl7.org/CodeSystem/claiminformationcategory","code":"related","display":"Related Service"}]},"code":{"text":"1"}},{"sequence":3,"category":{"coding":[{"system":"http://terminology.hl7.org/CodeSystem/claiminformationcategory","code":"other","display":"Other"}]},"code":{"text":"1"}}],"total":[{"category":{"coding":[{"system":"http://terminology.hl7.org/CodeSystem/adjudication","code":"copay","display":"CoPay"}]},"amount":{"value":20900,"currency":"KRW"}},{"category":{"coding":[{"system":"http://terminology.hl7.org/CodeSystem/adjudication","code":"benefit","display":"Benefit Amount"}]},"amount":{"value":3330,"currency":"KRW"}}]}},{"resource":{"resourceType":"ExplanationOfBenefit","id":"17000019","meta":{"profile":["https://simplifier.net/myhealthway/StructureDefinition/PublicExplanationOfBenefit"]},"identifier":[{"system":"리소스식별자(미정)","value":"0d953af9-5e23-499a-b776-737b0751593d"}],"contained":[{"resourceType":"Organization","id":"17100001","type":[{"coding":[{"system":"미정","code":"미정","display":"보험사"}],"text":"보험사"}],"name":"국민건강보험공단"},{"resourceType":"Organization","id":"17100002","type":[{"coding":[{"system":"미정","code":"미정","display":"약국"}],"text":"약국"}],"name":"가까운대학 약국","address":[{"text":"성남시 분당구"}]},{"resourceType":"Coverage","id":"17300001","status":"active","beneficiary":{"reference":"Patient/10000000","resource":{"resourceType":"Patient","id":"10000000","meta":{"profile":["https://simplifier.net/myhealthway/StructureDefinition/PublicPatient"]},"identifier":[{"type":{"coding":[{"system":"http://myhealthway.go.kr(가칭)","code":"MHID"}]},"system":"미정","value":"10237551"},{"type":{"coding":[{"system":"http://terminology.hl7.org/CodeSystem/v2-0203","code":"NNKOR"}]},"system":"http://mois.go.kr/rnn","value":"0502184******"}],"name":[{"text":"김민선"}]}},"payor":[{"reference":"Organization/17100002","resource":{"resourceType":"Organization","id":"17100002","type":[{"coding":[{"system":"미정","code":"미정","display":"약국"}],"text":"약국"}],"name":"가까운대학 약국","address":[{"text":"성남시 분당구"}]}}]}],"status":"active","type":{"coding":[{"system":"http://terminology.hl7.org/CodeSystem/claim-type","code":"pharmacy","display":"pharmacy"}]},"use":"claim","patient":{"reference":"Patient/10000000","resource":{"resourceType":"Patient","id":"10000000","meta":{"profile":["https://simplifier.net/myhealthway/StructureDefinition/PublicPatient"]},"identifier":[{"type":{"coding":[{"system":"http://myhealthway.go.kr(가칭)","code":"MHID"}]},"system":"미정","value":"10237551"},{"type":{"coding":[{"system":"http://terminology.hl7.org/CodeSystem/v2-0203","code":"NNKOR"}]},"system":"http://mois.go.kr/rnn","value":"0502184******"}],"name":[{"text":"김민선"}]}},"billablePeriod":{"start":"2024-05-08"},"created":"2024-05-08","insurer":{"reference":"Organization/17100001","resource":{"resourceType":"Organization","id":"17100001","type":[{"coding":[{"system":"미정","code":"미정","display":"보험사"}],"text":"보험사"}],"name":"국민건강보험공단"}},"provider":{"reference":"Organization/17100002","resource":{"resourceType":"Organization","id":"17100002","type":[{"coding":[{"system":"미정","code":"미정","display":"약국"}],"text":"약국"}],"name":"가까운대학 약국","address":[{"text":"성남시 분당구"}]}},"outcome":"complete","supportingInfo":[{"sequence":1,"category":{"coding":[{"system":"http://terminology.hl7.org/CodeSystem/claiminformationcategory","code":"hospitalized","display":"Hosptialized"}]},"code":{"text":"1"}},{"sequence":2,"category":{"coding":[{"system":"http://terminology.hl7.org/CodeSystem/claiminformationcategory","code":"related","display":"Related Service"}]},"code":{"text":"1"}},{"sequence":3,"category":{"coding":[{"system":"http://terminology.hl7.org/CodeSystem/claiminformationcategory","code":"other","display":"Other"}]},"code":{"text":"90"}}],"total":[{"category":{"coding":[{"system":"http://terminology.hl7.org/CodeSystem/adjudication","code":"copay","display":"CoPay"}]},"amount":{"value":22500,"currency":"KRW"}},{"category":{"coding":[{"system":"http://terminology.hl7.org/CodeSystem/adjudication","code":"benefit","display":"Benefit Amount"}]},"amount":{"value":52680,"currency":"KRW"}}]}},{"resource":{"resourceType":"ExplanationOfBenefit","id":"17000018","meta":{"profile":["https://simplifier.net/myhealthway/StructureDefinition/PublicExplanationOfBenefit"]},"identifier":[{"system":"리소스식별자(미정)","value":"4b91de6f-4563-4ee5-8906-758b390192a5"}],"contained":[{"resourceType":"Organization","id":"17100001","type":[{"coding":[{"system":"미정","code":"미정","display":"보험사"}],"text":"보험사"}],"name":"국민건강보험공단"},{"resourceType":"Organization","id":"17100002","type":[{"coding":[{"system":"미정","code":"미정","display":"병의원"}],"text":"병의원"}],"name":"분당서울대학교병원","address":[{"text":"성남시 분당구"}]},{"resourceType":"Coverage","id":"17300001","status":"active","beneficiary":{"reference":"Patient/10000000","resource":{"resourceType":"Patient","id":"10000000","meta":{"profile":["https://simplifier.net/myhealthway/StructureDefinition/PublicPatient"]},"identifier":[{"type":{"coding":[{"system":"http://myhealthway.go.kr(가칭)","code":"MHID"}]},"system":"미정","value":"10237551"},{"type":{"coding":[{"system":"http://terminology.hl7.org/CodeSystem/v2-0203","code":"NNKOR"}]},"system":"http://mois.go.kr/rnn","value":"0502184******"}],"name":[{"text":"김민선"}]}},"payor":[{"reference":"Organization/17100002","resource":{"resourceType":"Organization","id":"17100002","type":[{"coding":[{"system":"미정","code":"미정","display":"병의원"}],"text":"병의원"}],"name":"분당서울대학교병원","address":[{"text":"성남시 분당구"}]}}]}],"status":"active","type":{"coding":[{"system":"http://terminology.hl7.org/CodeSystem/claim-type","code":"institutional","display":"institutional"}]},"use":"claim","patient":{"reference":"Patient/10000000","resource":{"resourceType":"Patient","id":"10000000","meta":{"profile":["https://simplifier.net/myhealthway/StructureDefinition/PublicPatient"]},"identifier":[{"type":{"coding":[{"system":"http://myhealthway.go.kr(가칭)","code":"MHID"}]},"system":"미정","value":"10237551"},{"type":{"coding":[{"system":"http://terminology.hl7.org/CodeSystem/v2-0203","code":"NNKOR"}]},"system":"http://mois.go.kr/rnn","value":"0502184******"}],"name":[{"text":"김민선"}]}},"billablePeriod":{"start":"2024-05-08"},"created":"2024-05-08","insurer":{"reference":"Organization/17100001","resource":{"resourceType":"Organization","id":"17100001","type":[{"coding":[{"system":"미정","code":"미정","display":"보험사"}],"text":"보험사"}],"name":"국민건강보험공단"}},"provider":{"reference":"Organization/17100002","resource":{"resourceType":"Organization","id":"17100002","type":[{"coding":[{"system":"미정","code":"미정","display":"병의원"}],"text":"병의원"}],"name":"분당서울대학교병원","address":[{"text":"성남시 분당구"}]}},"outcome":"complete","supportingInfo":[{"sequence":1,"category":{"coding":[{"system":"http://terminology.hl7.org/CodeSystem/claiminformationcategory","code":"hospitalized","display":"Hosptialized"}]},"code":{"text":"1"}},{"sequence":2,"category":{"coding":[{"system":"http://terminology.hl7.org/CodeSystem/claiminformationcategory","code":"related","display":"Related Service"}]},"code":{"text":"1"}},{"sequence":3,"category":{"coding":[{"system":"http://terminology.hl7.org/CodeSystem/claiminformationcategory","code":"other","display":"Other"}]},"code":{"text":"1"}}],"total":[{"category":{"coding":[{"system":"http://terminology.hl7.org/CodeSystem/adjudication","code":"copay","display":"CoPay"}]},"amount":{"value":20900,"currency":"KRW"}},{"category":{"coding":[{"system":"http://terminology.hl7.org/CodeSystem/adjudication","code":"benefit","display":"Benefit Amount"}]},"amount":{"value":3330,"currency":"KRW"}}]}},{"resource":{"resourceType":"Immunization","id":"14000001","meta":{"profile":["https://simplifier.net/myhealthway/StructureDefinition/PublicImmunization"]},"identifier":[{"system":"리소스식별자(미정)","value":"bed34aa8-a86b-4918-ae4a-8eb0df1b2391"}],"contained":[{"resourceType":"Organization","id":"14100002","identifier":[{"value":"리소스식별자(미정)"}],"type":[{"coding":[{"system":"미정","code":"미정","display":"병의원"}],"text":"병의원"}],"name":"학교법인가톨릭학원가톨릭대학교서울성모병원"}],"status":"completed","vaccineCode":{"coding":[{"system":"코드체계(미정)","code":"0202","display":"B형간염(유전자재조합)"}]},"patient":{"reference":"Patient/10000000","resource":{"resourceType":"Patient","id":"10000000","meta":{"profile":["https://simplifier.net/myhealthway/StructureDefinition/PublicPatient"]},"identifier":[{"type":{"coding":[{"system":"http://myhealthway.go.kr(가칭)","code":"MHID"}]},"system":"미정","value":"10237551"},{"type":{"coding":[{"system":"http://terminology.hl7.org/CodeSystem/v2-0203","code":"NNKOR"}]},"system":"http://mois.go.kr/rnn","value":"0502184******"}],"name":[{"text":"김민선"}]}},"occurrenceDateTime":"2005-08-19","performer":[{"actor":{"reference":"Organization/14100002","resource":{"resourceType":"Organization","id":"14100002","identifier":[{"value":"리소스식별자(미정)"}],"type":[{"coding":[{"system":"미정","code":"미정","display":"병의원"}],"text":"병의원"}],"name":"학교법인가톨릭학원가톨릭대학교서울성모병원"}}}],"protocolApplied":[{"doseNumberPositiveInt":3}]}},{"resource":{"resourceType":"Immunization","id":"14000002","meta":{"profile":["https://simplifier.net/myhealthway/StructureDefinition/PublicImmunization"]},"identifier":[{"system":"리소스식별자(미정)","value":"514c73b1-0411-4b7a-af1f-b34ea34ac1f8"}],"contained":[{"resourceType":"Organization","id":"14100002","identifier":[{"value":"리소스식별자(미정)"}],"type":[{"coding":[{"system":"미정","code":"미정","display":"병의원"}],"text":"병의원"}],"name":"학교법인가톨릭학원가톨릭대학교서울성모병원"}],"status":"completed","vaccineCode":{"coding":[{"system":"코드체계(미정)","code":"0301","display":"디프테리아, 파상풍, 백일해(DTaP)"}]},"patient":{"reference":"Patient/10000000","resource":{"resourceType":"Patient","id":"10000000","meta":{"profile":["https://simplifier.net/myhealthway/StructureDefinition/PublicPatient"]},"identifier":[{"type":{"coding":[{"system":"http://myhealthway.go.kr(가칭)","code":"MHID"}]},"system":"미정","value":"10237551"},{"type":{"coding":[{"system":"http://terminology.hl7.org/CodeSystem/v2-0203","code":"NNKOR"}]},"system":"http://mois.go.kr/rnn","value":"0502184******"}],"name":[{"text":"김민선"}]}},"occurrenceDateTime":"2005-06-17","performer":[{"actor":{"reference":"Organization/14100002","resource":{"resourceType":"Organization","id":"14100002","identifier":[{"value":"리소스식별자(미정)"}],"type":[{"coding":[{"system":"미정","code":"미정","display":"병의원"}],"text":"병의원"}],"name":"학교법인가톨릭학원가톨릭대학교서울성모병원"}}}],"protocolApplied":[{"doseNumberPositiveInt":2}]}},{"resource":{"resourceType":"Immunization","id":"14000003","meta":{"profile":["https://simplifier.net/myhealthway/StructureDefinition/PublicImmunization"]},"identifier":[{"system":"리소스식별자(미정)","value":"e1712d06-616d-4e7b-a179-c5af8763b229"}],"contained":[{"resourceType":"Organization","id":"14100002","identifier":[{"value":"리소스식별자(미정)"}],"type":[{"coding":[{"system":"미정","code":"미정","display":"병의원"}],"text":"병의원"}],"name":"학교법인가톨릭학원가톨릭대학교서울성모병원"}],"status":"completed","vaccineCode":{"coding":[{"system":"코드체계(미정)","code":"0301","display":"디프테리아, 파상풍, 백일해(DTaP)"}]},"patient":{"reference":"Patient/10000000","resource":{"resourceType":"Patient","id":"10000000","meta":{"profile":["https://simplifier.net/myhealthway/StructureDefinition/PublicPatient"]},"identifier":[{"type":{"coding":[{"system":"http://myhealthway.go.kr(가칭)","code":"MHID"}]},"system":"미정","value":"10237551"},{"type":{"coding":[{"system":"http://terminology.hl7.org/CodeSystem/v2-0203","code":"NNKOR"}]},"system":"http://mois.go.kr/rnn","value":"0502184******"}],"name":[{"text":"김민선"}]}},"occurrenceDateTime":"2005-08-19","performer":[{"actor":{"reference":"Organization/14100002","resource":{"resourceType":"Organization","id":"14100002","identifier":[{"value":"리소스식별자(미정)"}],"type":[{"coding":[{"system":"미정","code":"미정","display":"병의원"}],"text":"병의원"}],"name":"학교법인가톨릭학원가톨릭대학교서울성모병원"}}}],"protocolApplied":[{"doseNumberPositiveInt":3}]}},{"resource":{"resourceType":"Immunization","id":"14000004","meta":{"profile":["https://simplifier.net/myhealthway/StructureDefinition/PublicImmunization"]},"identifier":[{"system":"리소스식별자(미정)","value":"a263038b-2c5a-4b90-96a3-a75e1bb3bf4f"}],"contained":[{"resourceType":"Organization","id":"14100002","identifier":[{"value":"리소스식별자(미정)"}],"type":[{"coding":[{"system":"미정","code":"미정","display":"병의원"}],"text":"병의원"}],"name":"준소아청소년과의원"}],"status":"completed","vaccineCode":{"coding":[{"system":"코드체계(미정)","code":"0301","display":"디프테리아, 파상풍, 백일해(DTaP)"}]},"patient":{"reference":"Patient/10000000","resource":{"resourceType":"Patient","id":"10000000","meta":{"profile":["https://simplifier.net/myhealthway/StructureDefinition/PublicPatient"]},"identifier":[{"type":{"coding":[{"system":"http://myhealthway.go.kr(가칭)","code":"MHID"}]},"system":"미정","value":"10237551"},{"type":{"coding":[{"system":"http://terminology.hl7.org/CodeSystem/v2-0203","code":"NNKOR"}]},"system":"http://mois.go.kr/rnn","value":"0502184******"}],"name":[{"text":"김민선"}]}},"occurrenceDateTime":"2009-04-26","performer":[{"actor":{"reference":"Organization/14100002","resource":{"resourceType":"Organization","id":"14100002","identifier":[{"value":"리소스식별자(미정)"}],"type":[{"coding":[{"system":"미정","code":"미정","display":"병의원"}],"text":"병의원"}],"name":"준소아청소년과의원"}}}],"protocolApplied":[{"doseNumberPositiveInt":5}]}},{"resource":{"resourceType":"Immunization","id":"14000005","meta":{"profile":["https://simplifier.net/myhealthway/StructureDefinition/PublicImmunization"]},"identifier":[{"system":"리소스식별자(미정)","value":"52c84f6f-6d84-4928-8485-b856e81e6aa8"}],"contained":[{"resourceType":"Organization","id":"14100002","identifier":[{"value":"리소스식별자(미정)"}],"type":[{"coding":[{"system":"미정","code":"미정","display":"병의원"}],"text":"병의원"}],"name":"믿음내과의원"}],"status":"completed","vaccineCode":{"coding":[{"system":"코드체계(미정)","code":"0306","display":"디프테리아, 파상풍, 백일해(Tdap)"}]},"patient":{"reference":"Patient/10000000","resource":{"resourceType":"Patient","id":"10000000","meta":{"profile":["https://simplifier.net/myhealthway/StructureDefinition/PublicPatient"]},"identifier":[{"type":{"coding":[{"system":"http://myhealthway.go.kr(가칭)","code":"MHID"}]},"system":"미정","value":"10237551"},{"type":{"coding":[{"system":"http://terminology.hl7.org/CodeSystem/v2-0203","code":"NNKOR"}]},"system":"http://mois.go.kr/rnn","value":"0502184******"}],"name":[{"text":"김민선"}]}},"occurrenceDateTime":"2016-05-23","performer":[{"actor":{"reference":"Organization/14100002","resource":{"resourceType":"Organization","id":"14100002","identifier":[{"value":"리소스식별자(미정)"}],"type":[{"coding":[{"system":"미정","code":"미정","display":"병의원"}],"text":"병의원"}],"name":"믿음내과의원"}}}],"protocolApplied":[{"doseNumberPositiveInt":6}]}},{"resource":{"resourceType":"Immunization","id":"14000006","meta":{"profile":["https://simplifier.net/myhealthway/StructureDefinition/PublicImmunization"]},"identifier":[{"system":"리소스식별자(미정)","value":"eb718947-d12f-4cc8-be86-953db53d807e"}],"contained":[{"resourceType":"Organization","id":"14100002","identifier":[{"value":"리소스식별자(미정)"}],"type":[{"coding":[{"system":"미정","code":"미정","display":"병의원"}],"text":"병의원"}],"name":"학교법인가톨릭학원가톨릭대학교서울성모병원"}],"status":"completed","vaccineCode":{"coding":[{"system":"코드체계(미정)","code":"0402","display":"폴리오(주사용)"}]},"patient":{"reference":"Patient/10000000","resource":{"resourceType":"Patient","id":"10000000","meta":{"profile":["https://simplifier.net/myhealthway/StructureDefinition/PublicPatient"]},"identifier":[{"type":{"coding":[{"system":"http://myhealthway.go.kr(가칭)","code":"MHID"}]},"system":"미정","value":"10237551"},{"type":{"coding":[{"system":"http://terminology.hl7.org/CodeSystem/v2-0203","code":"NNKOR"}]},"system":"http://mois.go.kr/rnn","value":"0502184******"}],"name":[{"text":"김민선"}]}},"occurrenceDateTime":"2005-06-17","performer":[{"actor":{"reference":"Organization/14100002","resource":{"resourceType":"Organization","id":"14100002","identifier":[{"value":"리소스식별자(미정)"}],"type":[{"coding":[{"system":"미정","code":"미정","display":"병의원"}],"text":"병의원"}],"name":"학교법인가톨릭학원가톨릭대학교서울성모병원"}}}],"protocolApplied":[{"doseNumberPositiveInt":2}]}},{"resource":{"resourceType":"Immunization","id":"14000007","meta":{"profile":["https://simplifier.net/myhealthway/StructureDefinition/PublicImmunization"]},"identifier":[{"system":"리소스식별자(미정)","value":"aaf31b98-bfb4-41e8-9cd9-b2e170ef1592"}],"contained":[{"resourceType":"Organization","id":"14100002","identifier":[{"value":"리소스식별자(미정)"}],"type":[{"coding":[{"system":"미정","code":"미정","display":"병의원"}],"text":"병의원"}],"name":"학교법인가톨릭학원가톨릭대학교서울성모병원"}],"status":"completed","vaccineCode":{"coding":[{"system":"코드체계(미정)","code":"0402","display":"폴리오(주사용)"}]},"patient":{"reference":"Patient/10000000","resource":{"resourceType":"Patient","id":"10000000","meta":{"profile":["https://simplifier.net/myhealthway/StructureDefinition/PublicPatient"]},"identifier":[{"type":{"coding":[{"system":"http://myhealthway.go.kr(가칭)","code":"MHID"}]},"system":"미정","value":"10237551"},{"type":{"coding":[{"system":"http://terminology.hl7.org/CodeSystem/v2-0203","code":"NNKOR"}]},"system":"http://mois.go.kr/rnn","value":"0502184******"}],"name":[{"text":"김민선"}]}},"occurrenceDateTime":"2005-08-19","performer":[{"actor":{"reference":"Organization/14100002","resource":{"resourceType":"Organization","id":"14100002","identifier":[{"value":"리소스식별자(미정)"}],"type":[{"coding":[{"system":"미정","code":"미정","display":"병의원"}],"text":"병의원"}],"name":"학교법인가톨릭학원가톨릭대학교서울성모병원"}}}],"protocolApplied":[{"doseNumberPositiveInt":3}]}},{"resource":{"resourceType":"Immunization","id":"14000008","meta":{"profile":["https://simplifier.net/myhealthway/StructureDefinition/PublicImmunization"]},"identifier":[{"system":"리소스식별자(미정)","value":"48fce1f1-81ef-42c4-b00b-4b3e90f68c4b"}],"contained":[{"resourceType":"Organization","id":"14100002","identifier":[{"value":"리소스식별자(미정)"}],"type":[{"coding":[{"system":"미정","code":"미정","display":"병의원"}],"text":"병의원"}],"name":"준소아청소년과의원"}],"status":"completed","vaccineCode":{"coding":[{"system":"코드체계(미정)","code":"0402","display":"폴리오(주사용)"}]},"patient":{"reference":"Patient/10000000","resource":{"resourceType":"Patient","id":"10000000","meta":{"profile":["https://simplifier.net/myhealthway/StructureDefinition/PublicPatient"]},"identifier":[{"type":{"coding":[{"system":"http://myhealthway.go.kr(가칭)","code":"MHID"}]},"system":"미정","value":"10237551"},{"type":{"coding":[{"system":"http://terminology.hl7.org/CodeSystem/v2-0203","code":"NNKOR"}]},"system":"http://mois.go.kr/rnn","value":"0502184******"}],"name":[{"text":"김민선"}]}},"occurrenceDateTime":"2009-04-26","performer":[{"actor":{"reference":"Organization/14100002","resource":{"resourceType":"Organization","id":"14100002","identifier":[{"value":"리소스식별자(미정)"}],"type":[{"coding":[{"system":"미정","code":"미정","display":"병의원"}],"text":"병의원"}],"name":"준소아청소년과의원"}}}],"protocolApplied":[{"doseNumberPositiveInt":4}]}},{"resource":{"resourceType":"Immunization","id":"14000009","meta":{"profile":["https://simplifier.net/myhealthway/StructureDefinition/PublicImmunization"]},"identifier":[{"system":"리소스식별자(미정)","value":"f7fac851-3f31-43fc-a320-4fcb93293d85"}],"contained":[{"resourceType":"Organization","id":"14100002","identifier":[{"value":"리소스식별자(미정)"}],"type":[{"coding":[{"system":"미정","code":"미정","display":"병의원"}],"text":"병의원"}],"name":"학교법인가톨릭학원가톨릭대학교서울성모병원"}],"status":"completed","vaccineCode":{"coding":[{"system":"코드체계(미정)","code":"1401","display":"b형헤모필루스인플루엔자(Hib)"}]},"patient":{"reference":"Patient/10000000","resource":{"resourceType":"Patient","id":"10000000","meta":{"profile":["https://simplifier.net/myhealthway/StructureDefinition/PublicPatient"]},"identifier":[{"type":{"coding":[{"system":"http://myhealthway.go.kr(가칭)","code":"MHID"}]},"system":"미정","value":"10237551"},{"type":{"coding":[{"system":"http://terminology.hl7.org/CodeSystem/v2-0203","code":"NNKOR"}]},"system":"http://mois.go.kr/rnn","value":"0502184******"}],"name":[{"text":"김민선"}]}},"occurrenceDateTime":"2005-07-01","performer":[{"actor":{"reference":"Organization/14100002","resource":{"resourceType":"Organization","id":"14100002","identifier":[{"value":"리소스식별자(미정)"}],"type":[{"coding":[{"system":"미정","code":"미정","display":"병의원"}],"text":"병의원"}],"name":"학교법인가톨릭학원가톨릭대학교서울성모병원"}}}],"protocolApplied":[{"doseNumberPositiveInt":2}]}},{"resource":{"resourceType":"Immunization","id":"14000010","meta":{"profile":["https://simplifier.net/myhealthway/StructureDefinition/PublicImmunization"]},"identifier":[{"system":"리소스식별자(미정)","value":"2a3d307e-0081-4be7-9e8c-02ac5d7624b1"}],"contained":[{"resourceType":"Organization","id":"14100002","identifier":[{"value":"리소스식별자(미정)"}],"type":[{"coding":[{"system":"미정","code":"미정","display":"병의원"}],"text":"병의원"}],"name":"학교법인가톨릭학원가톨릭대학교서울성모병원"}],"status":"completed","vaccineCode":{"coding":[{"system":"코드체계(미정)","code":"1401","display":"b형헤모필루스인플루엔자(Hib)"}]},"patient":{"reference":"Patient/10000000","resource":{"resourceType":"Patient","id":"10000000","meta":{"profile":["https://simplifier.net/myhealthway/StructureDefinition/PublicPatient"]},"identifier":[{"type":{"coding":[{"system":"http://myhealthway.go.kr(가칭)","code":"MHID"}]},"system":"미정","value":"10237551"},{"type":{"coding":[{"system":"http://terminology.hl7.org/CodeSystem/v2-0203","code":"NNKOR"}]},"system":"http://mois.go.kr/rnn","value":"0502184******"}],"name":[{"text":"김민선"}]}},"occurrenceDateTime":"2005-09-01","performer":[{"actor":{"reference":"Organization/14100002","resource":{"resourceType":"Organization","id":"14100002","identifier":[{"value":"리소스식별자(미정)"}],"type":[{"coding":[{"system":"미정","code":"미정","display":"병의원"}],"text":"병의원"}],"name":"학교법인가톨릭학원가톨릭대학교서울성모병원"}}}],"protocolApplied":[{"doseNumberPositiveInt":3}]}},{"resource":{"resourceType":"Immunization","id":"14000011","meta":{"profile":["https://simplifier.net/myhealthway/StructureDefinition/PublicImmunization"]},"identifier":[{"system":"리소스식별자(미정)","value":"3a859974-78bd-4b8e-8668-27fe5fb90d27"}],"contained":[{"resourceType":"Organization","id":"14100002","identifier":[{"value":"리소스식별자(미정)"}],"type":[{"coding":[{"system":"미정","code":"미정","display":"병의원"}],"text":"병의원"}],"name":"학교법인가톨릭학원가톨릭대학교서울성모병원"}],"status":"completed","vaccineCode":{"coding":[{"system":"코드체계(미정)","code":"1604","display":"폐렴구균(단백결합7가)"}]},"patient":{"reference":"Patient/10000000","resource":{"resourceType":"Patient","id":"10000000","meta":{"profile":["https://simplifier.net/myhealthway/StructureDefinition/PublicPatient"]},"identifier":[{"type":{"coding":[{"system":"http://myhealthway.go.kr(가칭)","code":"MHID"}]},"system":"미정","value":"10237551"},{"type":{"coding":[{"system":"http://terminology.hl7.org/CodeSystem/v2-0203","code":"NNKOR"}]},"system":"http://mois.go.kr/rnn","value":"0502184******"}],"name":[{"text":"김민선"}]}},"occurrenceDateTime":"2005-07-01","performer":[{"actor":{"reference":"Organization/14100002","resource":{"resourceType":"Organization","id":"14100002","identifier":[{"value":"리소스식별자(미정)"}],"type":[{"coding":[{"system":"미정","code":"미정","display":"병의원"}],"text":"병의원"}],"name":"학교법인가톨릭학원가톨릭대학교서울성모병원"}}}],"protocolApplied":[{"doseNumberPositiveInt":2}]}},{"resource":{"resourceType":"Immunization","id":"14000012","meta":{"profile":["https://simplifier.net/myhealthway/StructureDefinition/PublicImmunization"]},"identifier":[{"system":"리소스식별자(미정)","value":"9d797a6f-389b-4186-a8e7-db89dea958fb"}],"contained":[{"resourceType":"Organization","id":"14100002","identifier":[{"value":"리소스식별자(미정)"}],"type":[{"coding":[{"system":"미정","code":"미정","display":"병의원"}],"text":"병의원"}],"name":"학교법인가톨릭학원가톨릭대학교서울성모병원"}],"status":"completed","vaccineCode":{"coding":[{"system":"코드체계(미정)","code":"1604","display":"폐렴구균(단백결합7가)"}]},"patient":{"reference":"Patient/10000000","resource":{"resourceType":"Patient","id":"10000000","meta":{"profile":["https://simplifier.net/myhealthway/StructureDefinition/PublicPatient"]},"identifier":[{"type":{"coding":[{"system":"http://myhealthway.go.kr(가칭)","code":"MHID"}]},"system":"미정","value":"10237551"},{"type":{"coding":[{"system":"http://terminology.hl7.org/CodeSystem/v2-0203","code":"NNKOR"}]},"system":"http://mois.go.kr/rnn","value":"0502184******"}],"name":[{"text":"김민선"}]}},"occurrenceDateTime":"2005-09-01","performer":[{"actor":{"reference":"Organization/14100002","resource":{"resourceType":"Organization","id":"14100002","identifier":[{"value":"리소스식별자(미정)"}],"type":[{"coding":[{"system":"미정","code":"미정","display":"병의원"}],"text":"병의원"}],"name":"학교법인가톨릭학원가톨릭대학교서울성모병원"}}}],"protocolApplied":[{"doseNumberPositiveInt":3}]}},{"resource":{"resourceType":"Immunization","id":"14000013","meta":{"profile":["https://simplifier.net/myhealthway/StructureDefinition/PublicImmunization"]},"identifier":[{"system":"리소스식별자(미정)","value":"7748dae0-f7b2-4c3e-950c-d378d832af7e"}],"contained":[{"resourceType":"Organization","id":"14100002","identifier":[{"value":"리소스식별자(미정)"}],"type":[{"coding":[{"system":"미정","code":"미정","display":"병의원"}],"text":"병의원"}],"name":"전혜정소아청소년과의원"}],"status":"completed","vaccineCode":{"coding":[{"system":"코드체계(미정)","code":"0501","display":"홍역, 유행성이하선염, 풍진(MMR)"}]},"patient":{"reference":"Patient/10000000","resource":{"resourceType":"Patient","id":"10000000","meta":{"profile":["https://simplifier.net/myhealthway/StructureDefinition/PublicPatient"]},"identifier":[{"type":{"coding":[{"system":"http://myhealthway.go.kr(가칭)","code":"MHID"}]},"system":"미정","value":"10237551"},{"type":{"coding":[{"system":"http://terminology.hl7.org/CodeSystem/v2-0203","code":"NNKOR"}]},"system":"http://mois.go.kr/rnn","value":"0502184******"}],"name":[{"text":"김민선"}]}},"occurrenceDateTime":"2009-05-08","performer":[{"actor":{"reference":"Organization/14100002","resource":{"resourceType":"Organization","id":"14100002","identifier":[{"value":"리소스식별자(미정)"}],"type":[{"coding":[{"system":"미정","code":"미정","display":"병의원"}],"text":"병의원"}],"name":"전혜정소아청소년과의원"}}}],"protocolApplied":[{"doseNumberPositiveInt":2}]}},{"resource":{"resourceType":"Immunization","id":"14000014","meta":{"profile":["https://simplifier.net/myhealthway/StructureDefinition/PublicImmunization"]},"identifier":[{"system":"리소스식별자(미정)","value":"33a3ee07-16a7-466c-8c44-b34b77bceecd"}],"contained":[{"resourceType":"Organization","id":"14100002","identifier":[{"value":"리소스식별자(미정)"}],"type":[{"coding":[{"system":"미정","code":"미정","display":"병의원"}],"text":"병의원"}],"name":"믿음내과의원"}],"status":"completed","vaccineCode":{"coding":[{"system":"코드체계(미정)","code":"2001","display":"사람유두종바이러스(가다실)"}]},"patient":{"reference":"Patient/10000000","resource":{"resourceType":"Patient","id":"10000000","meta":{"profile":["https://simplifier.net/myhealthway/StructureDefinition/PublicPatient"]},"identifier":[{"type":{"coding":[{"system":"http://myhealthway.go.kr(가칭)","code":"MHID"}]},"system":"미정","value":"10237551"},{"type":{"coding":[{"system":"http://terminology.hl7.org/CodeSystem/v2-0203","code":"NNKOR"}]},"system":"http://mois.go.kr/rnn","value":"0502184******"}],"name":[{"text":"김민선"}]}},"occurrenceDateTime":"2018-06-16","performer":[{"actor":{"reference":"Organization/14100002","resource":{"resourceType":"Organization","id":"14100002","identifier":[{"value":"리소스식별자(미정)"}],"type":[{"coding":[{"system":"미정","code":"미정","display":"병의원"}],"text":"병의원"}],"name":"믿음내과의원"}}}],"protocolApplied":[{"doseNumberPositiveInt":1}]}},{"resource":{"resourceType":"Immunization","id":"14000015","meta":{"profile":["https://simplifier.net/myhealthway/StructureDefinition/PublicImmunization"]},"identifier":[{"system":"리소스식별자(미정)","value":"b0c8b61c-0cb5-4325-8f41-6428976f09c8"}],"contained":[{"resourceType":"Organization","id":"14100002","identifier":[{"value":"리소스식별자(미정)"}],"type":[{"coding":[{"system":"미정","code":"미정","display":"병의원"}],"text":"병의원"}],"name":"장앤전내과이비인후과의원"}],"status":"completed","vaccineCode":{"coding":[{"system":"코드체계(미정)","code":"2001","display":"사람유두종바이러스(가다실)"}]},"patient":{"reference":"Patient/10000000","resource":{"resourceType":"Patient","id":"10000000","meta":{"profile":["https://simplifier.net/myhealthway/StructureDefinition/PublicPatient"]},"identifier":[{"type":{"coding":[{"system":"http://myhealthway.go.kr(가칭)","code":"MHID"}]},"system":"미정","value":"10237551"},{"type":{"coding":[{"system":"http://terminology.hl7.org/CodeSystem/v2-0203","code":"NNKOR"}]},"system":"http://mois.go.kr/rnn","value":"0502184******"}],"name":[{"text":"김민선"}]}},"occurrenceDateTime":"2019-11-08","performer":[{"actor":{"reference":"Organization/14100002","resource":{"resourceType":"Organization","id":"14100002","identifier":[{"value":"리소스식별자(미정)"}],"type":[{"coding":[{"system":"미정","code":"미정","display":"병의원"}],"text":"병의원"}],"name":"장앤전내과이비인후과의원"}}}],"protocolApplied":[{"doseNumberPositiveInt":2}]}},{"resource":{"resourceType":"Immunization","id":"14000016","meta":{"profile":["https://simplifier.net/myhealthway/StructureDefinition/PublicImmunization"]},"identifier":[{"system":"리소스식별자(미정)","value":"fc6b54bf-07e1-401c-a01f-e227e703e71b"}],"contained":[{"resourceType":"Organization","id":"14100002","identifier":[{"value":"리소스식별자(미정)"}],"type":[{"coding":[{"system":"미정","code":"미정","display":"병의원"}],"text":"병의원"}],"name":"믿음내과의원"}],"status":"completed","vaccineCode":{"coding":[{"system":"코드체계(미정)","code":"0901","display":"인플루엔자"}]},"patient":{"reference":"Patient/10000000","resource":{"resourceType":"Patient","id":"10000000","meta":{"profile":["https://simplifier.net/myhealthway/StructureDefinition/PublicPatient"]},"identifier":[{"type":{"coding":[{"system":"http://myhealthway.go.kr(가칭)","code":"MHID"}]},"system":"미정","value":"10237551"},{"type":{"coding":[{"system":"http://terminology.hl7.org/CodeSystem/v2-0203","code":"NNKOR"}]},"system":"http://mois.go.kr/rnn","value":"0502184******"}],"name":[{"text":"김민선"}]}},"occurrenceDateTime":"2025-02-05","performer":[{"actor":{"reference":"Organization/14100002","resource":{"resourceType":"Organization","id":"14100002","identifier":[{"value":"리소스식별자(미정)"}],"type":[{"coding":[{"system":"미정","code":"미정","display":"병의원"}],"text":"병의원"}],"name":"믿음내과의원"}}}],"protocolApplied":[{"doseNumberPositiveInt":3}]}},{"resource":{"resourceType":"Patient","id":"10000000","meta":{"profile":["https://simplifier.net/myhealthway/StructureDefinition/PublicPatient"]},"identifier":[{"type":{"coding":[{"system":"http://myhealthway.go.kr(가칭)","code":"MHID"}]},"system":"미정","value":"10237551"},{"type":{"coding":[{"system":"http://terminology.hl7.org/CodeSystem/v2-0203","code":"NNKOR"}]},"system":"http://mois.go.kr/rnn","value":"0502184******"}],"name":[{"text":"김민선"}]}}],"medicalData":[]}