{"publicData":[{"resource":{"resourceType":"MedicationDispense","id":"16000001","meta":{"profile":["https://simplifier.net/myhealthway/StructureDefinition/PublicMedicationDispense"]},"identifier":[{"system":"리소스식별자(미정)","value":"47d4aa5b-5c49-4497-b25f-59814a995af6"}],"contained":[{"resourceType":"Organization","id":"16200001","identifier":[{"system":"리소스식별체계(미정)","value":"032ec40d-7229-4af1-869d-0a11ce6c70b7"}],"type":[{"coding":[{"system":"미정","code":"미정","display":"약국"}],"text":"약국"}],"name":"화인약국","address":[{"text":"서울특별시 강남구 강남대로"}]}],"status":"completed","medicationReference":{"reference":"Medication/16100001","resource":{"resourceType":"Medication","id":"16100001","meta":{"profile":["https://simplifier.net/myhealthway/StructureDefinition/PublicMedication"]},"identifier":[{"system":"리소스식별자(미정)","value":"medication1"}],"contained":[{"resourceType":"Substance","id":"163000001","identifier":[{"system":"리소스식별자(미정)","value":"acetaminophen(encapsulated)"}]}],"code":{"coding":[{"system":"https://biz.kpis.or.kr/CodeSystem/kdcode","code":"642202200","display":"타세놀8시간이알서방정(아세트아미노펜)_(0.65g/1정)"}],"text":"타세놀8시간이알서방정(아세트아미노펜)_(0.65g/1정)"},"ingredient":[{"itemReference":{"reference":"Substance/163000001","resource":{"resourceType":"Substance","id":"163000001","identifier":[{"system":"리소스식별자(미정)","value":"acetaminophen(encapsulated)"}],"code":{"coding":[{"system":"https://www.hira.or.kr","code":"101430ATR","display":"acetaminophen(encapsulated)"}]}}}}]}},"subject":{"reference":"Patient/10000000","resource":{"resourceType":"Patient","id":"10000000","meta":{"profile":["https://simplifier.net/myhealthway/StructureDefinition/PublicPatient"]},"identifier":[{"type":{"coding":[{"system":"http://myhealthway.go.kr(가칭)","code":"MHID"}]},"system":"미정","value":"10237464"},{"type":{"coding":[{"system":"http://terminology.hl7.org/CodeSystem/v2-0203","code":"NNKOR"}]},"system":"http://mois.go.kr/rnn","value":"9206272******"}],"name":[{"text":"정한나"}]}},"performer":[{"actor":{"reference":"Organization/16200001","resource":{"resourceType":"Organization","id":"16200001","identifier":[{"system":"리소스식별체계(미정)","value":"032ec40d-7229-4af1-869d-0a11ce6c70b7"}],"type":[{"coding":[{"system":"미정","code":"미정","display":"약국"}],"text":"약국"}],"name":"화인약국","address":[{"text":"서울특별시 강남구 강남대로"}]}}}],"daysSupply":{"value":3,"unit":"일","system":"http://unitsofmeasure.org","code":"d"},"whenPrepared":"2025-04-10","dosageInstruction":[{"text":"1정","timing":{"repeat":{"extension":[{"url":"https://simplifier.net/myhealthway/StructureDefinition/TimingforPublicMedicationDispense","valueString":"3"}],"frequency":3,"period":1,"periodUnit":"d"}},"doseAndRate":[{"doseQuantity":{"value":1.0}}]}]}},{"resource":{"resourceType":"MedicationDispense","id":"16000002","meta":{"profile":["https://simplifier.net/myhealthway/StructureDefinition/PublicMedicationDispense"]},"identifier":[{"system":"리소스식별자(미정)","value":"0de6fd2b-aea8-4f6f-aef6-7e22c17355ca"}],"contained":[{"resourceType":"Organization","id":"16200002","identifier":[{"system":"리소스식별체계(미정)","value":"ed2205c3-2790-48c5-8f4c-1be38ab9c81b"}],"type":[{"coding":[{"system":"미정","code":"미정","display":"약국"}],"text":"약국"}],"name":"화인약국","address":[{"text":"서울특별시 강남구 강남대로"}]}],"status":"completed","medicationReference":{"reference":"Medication/16100002","resource":{"resourceType":"Medication","id":"16100002","meta":{"profile":["https://simplifier.net/myhealthway/StructureDefinition/PublicMedication"]},"identifier":[{"system":"리소스식별자(미정)","value":"medication1"}],"contained":[{"resourceType":"Substance","id":"163000001","identifier":[{"system":"리소스식별자(미정)","value":"methylprednisolone"}]}],"code":{"coding":[{"system":"https://biz.kpis.or.kr/CodeSystem/kdcode","code":"644802910","display":"프레나정(메틸프레드니솔론)_(4mg/1정)"}],"text":"프레나정(메틸프레드니솔론)_(4mg/1정)"},"ingredient":[{"itemReference":{"reference":"Substance/163000001","resource":{"resourceType":"Substance","id":"163000001","identifier":[{"system":"리소스식별자(미정)","value":"methylprednisolone"}],"code":{"coding":[{"system":"https://www.hira.or.kr","code":"193302ATB","display":"methylprednisolone"}]}}}}]}},"subject":{"reference":"Patient/10000000","resource":{"resourceType":"Patient","id":"10000000","meta":{"profile":["https://simplifier.net/myhealthway/StructureDefinition/PublicPatient"]},"identifier":[{"type":{"coding":[{"system":"http://myhealthway.go.kr(가칭)","code":"MHID"}]},"system":"미정","value":"10237464"},{"type":{"coding":[{"system":"http://terminology.hl7.org/CodeSystem/v2-0203","code":"NNKOR"}]},"system":"http://mois.go.kr/rnn","value":"9206272******"}],"name":[{"text":"정한나"}]}},"performer":[{"actor":{"reference":"Organization/16200002","resource":{"resourceType":"Organization","id":"16200002","identifier":[{"system":"리소스식별체계(미정)","value":"ed2205c3-2790-48c5-8f4c-1be38ab9c81b"}],"type":[{"coding":[{"system":"미정","code":"미정","display":"약국"}],"text":"약국"}],"name":"화인약국","address":[{"text":"서울특별시 강남구 강남대로"}]}}}],"daysSupply":{"value":3,"unit":"일","system":"http://unitsofmeasure.org","code":"d"},"whenPrepared":"2025-04-10","dosageInstruction":[{"text":"1정","timing":{"repeat":{"extension":[{"url":"https://simplifier.net/myhealthway/StructureDefinition/TimingforPublicMedicationDispense","valueString":"2"}],"frequency":2,"period":1,"periodUnit":"d"}},"doseAndRate":[{"doseQuantity":{"value":1.0}}]}]}},{"resource":{"resourceType":"MedicationDispense","id":"16000003","meta":{"profile":["https://simplifier.net/myhealthway/StructureDefinition/PublicMedicationDispense"]},"identifier":[{"system":"리소스식별자(미정)","value":"a0b02c8e-9433-4857-a78d-282ffedf38f9"}],"contained":[{"resourceType":"Organization","id":"16200003","identifier":[{"system":"리소스식별체계(미정)","value":"d1c48497-b912-47c5-ac26-b55b44ac2b9c"}],"type":[{"coding":[{"system":"미정","code":"미정","display":"약국"}],"text":"약국"}],"name":"화인약국","address":[{"text":"서울특별시 강남구 강남대로"}]}],"status":"completed","medicationReference":{"reference":"Medication/16100003","resource":{"resourceType":"Medication","id":"16100003","meta":{"profile":["https://simplifier.net/myhealthway/StructureDefinition/PublicMedication"]},"identifier":[{"system":"리소스식별자(미정)","value":"medication1"}],"contained":[{"resourceType":"Substance","id":"163000001","identifier":[{"system":"리소스식별자(미정)","value":"rebamipide"}]}],"code":{"coding":[{"system":"https://biz.kpis.or.kr/CodeSystem/kdcode","code":"649502160","display":"유니레바정(레바미피드)(수출명: 유니레다정)_(0.1g/1정)"}],"text":"유니레바정(레바미피드)(수출명: 유니레다정)_(0.1g/1정)"},"ingredient":[{"itemReference":{"reference":"Substance/163000001","resource":{"resourceType":"Substance","id":"163000001","identifier":[{"system":"리소스식별자(미정)","value":"rebamipide"}],"code":{"coding":[{"system":"https://www.hira.or.kr","code":"222901ATB","display":"rebamipide"}]}}}}]}},"subject":{"reference":"Patient/10000000","resource":{"resourceType":"Patient","id":"10000000","meta":{"profile":["https://simplifier.net/myhealthway/StructureDefinition/PublicPatient"]},"identifier":[{"type":{"coding":[{"system":"http://myhealthway.go.kr(가칭)","code":"MHID"}]},"system":"미정","value":"10237464"},{"type":{"coding":[{"system":"http://terminology.hl7.org/CodeSystem/v2-0203","code":"NNKOR"}]},"system":"http://mois.go.kr/rnn","value":"9206272******"}],"name":[{"text":"정한나"}]}},"performer":[{"actor":{"reference":"Organization/16200003","resource":{"resourceType":"Organization","id":"16200003","identifier":[{"system":"리소스식별체계(미정)","value":"d1c48497-b912-47c5-ac26-b55b44ac2b9c"}],"type":[{"coding":[{"system":"미정","code":"미정","display":"약국"}],"text":"약국"}],"name":"화인약국","address":[{"text":"서울특별시 강남구 강남대로"}]}}}],"daysSupply":{"value":3,"unit":"일","system":"http://unitsofmeasure.org","code":"d"},"whenPrepared":"2025-04-10","dosageInstruction":[{"text":"1정","timing":{"repeat":{"extension":[{"url":"https://simplifier.net/myhealthway/StructureDefinition/TimingforPublicMedicationDispense","valueString":"3"}],"frequency":3,"period":1,"periodUnit":"d"}},"doseAndRate":[{"doseQuantity":{"value":1.0}}]}]}},{"resource":{"resourceType":"MedicationDispense","id":"16000004","meta":{"profile":["https://simplifier.net/myhealthway/StructureDefinition/PublicMedicationDispense"]},"identifier":[{"system":"리소스식별자(미정)","value":"13dc9ec7-c5a9-4690-8668-658e6436203a"}],"contained":[{"resourceType":"Organization","id":"16200004","identifier":[{"system":"리소스식별체계(미정)","value":"b6031527-40cf-4585-b526-e6295bd6bb1f"}],"type":[{"coding":[{"system":"미정","code":"미정","display":"약국"}],"text":"약국"}],"name":"화인약국","address":[{"text":"서울특별시 강남구 강남대로"}]}],"status":"completed","medicationReference":{"reference":"Medication/16100004","resource":{"resourceType":"Medication","id":"16100004","meta":{"profile":["https://simplifier.net/myhealthway/StructureDefinition/PublicMedication"]},"identifier":[{"system":"리소스식별자(미정)","value":"medication1"}],"contained":[{"resourceType":"Substance","id":"163000001","identifier":[{"system":"리소스식별자(미정)","value":"levocetirizine dihydrochloride"}]}],"code":{"coding":[{"system":"https://biz.kpis.or.kr/CodeSystem/kdcode","code":"651600960","display":"렙티진정(레보세티리진 염산염)_(5mg/1정)"}],"text":"렙티진정(레보세티리진 염산염)_(5mg/1정)"},"ingredient":[{"itemReference":{"reference":"Substance/163000001","resource":{"resourceType":"Substance","id":"163000001","identifier":[{"system":"리소스식별자(미정)","value":"levocetirizine dihydrochloride"}],"code":{"coding":[{"system":"https://www.hira.or.kr","code":"463601ATB","display":"levocetirizine dihydrochloride"}]}}}}]}},"subject":{"reference":"Patient/10000000","resource":{"resourceType":"Patient","id":"10000000","meta":{"profile":["https://simplifier.net/myhealthway/StructureDefinition/PublicPatient"]},"identifier":[{"type":{"coding":[{"system":"http://myhealthway.go.kr(가칭)","code":"MHID"}]},"system":"미정","value":"10237464"},{"type":{"coding":[{"system":"http://terminology.hl7.org/CodeSystem/v2-0203","code":"NNKOR"}]},"system":"http://mois.go.kr/rnn","value":"9206272******"}],"name":[{"text":"정한나"}]}},"performer":[{"actor":{"reference":"Organization/16200004","resource":{"resourceType":"Organization","id":"16200004","identifier":[{"system":"리소스식별체계(미정)","value":"b6031527-40cf-4585-b526-e6295bd6bb1f"}],"type":[{"coding":[{"system":"미정","code":"미정","display":"약국"}],"text":"약국"}],"name":"화인약국","address":[{"text":"서울특별시 강남구 강남대로"}]}}}],"daysSupply":{"value":3,"unit":"일","system":"http://unitsofmeasure.org","code":"d"},"whenPrepared":"2025-04-10","dosageInstruction":[{"text":"1정","timing":{"repeat":{"extension":[{"url":"https://simplifier.net/myhealthway/StructureDefinition/TimingforPublicMedicationDispense","valueString":"1"}],"frequency":1,"period":1,"periodUnit":"d"}},"doseAndRate":[{"doseQuantity":{"value":1.0}}]}]}},{"resource":{"resourceType":"MedicationDispense","id":"16000005","meta":{"profile":["https://simplifier.net/myhealthway/StructureDefinition/PublicMedicationDispense"]},"identifier":[{"system":"리소스식별자(미정)","value":"ef39d052-853f-49cf-b182-c1125465efe6"}],"contained":[{"resourceType":"Organization","id":"16200005","identifier":[{"system":"리소스식별체계(미정)","value":"4c2ff7b4-a22c-4553-bf06-651018c74559"}],"type":[{"coding":[{"system":"미정","code":"미정","display":"약국"}],"text":"약국"}],"name":"화인약국","address":[{"text":"서울특별시 강남구 강남대로"}]}],"status":"completed","medicationReference":{"reference":"Medication/16100005","resource":{"resourceType":"Medication","id":"16100005","meta":{"profile":["https://simplifier.net/myhealthway/StructureDefinition/PublicMedication"]},"identifier":[{"system":"리소스식별자(미정)","value":"medication1"}],"contained":[{"resourceType":"Substance","id":"163000001","identifier":[{"system":"리소스식별자(미정)","value":"dexibuprofen"}]}],"code":{"coding":[{"system":"https://biz.kpis.or.kr/CodeSystem/kdcode","code":"670100100","display":"덱시부정400mg(덱시부프로펜디.씨)_(0.4g/1정)"}],"text":"덱시부정400mg(덱시부프로펜디.씨)_(0.4g/1정)"},"ingredient":[{"itemReference":{"reference":"Substance/163000001","resource":{"resourceType":"Substance","id":"163000001","identifier":[{"system":"리소스식별자(미정)","value":"dexibuprofen"}],"code":{"coding":[{"system":"https://www.hira.or.kr","code":"142303ATB","display":"dexibuprofen"}]}}}}]}},"subject":{"reference":"Patient/10000000","resource":{"resourceType":"Patient","id":"10000000","meta":{"profile":["https://simplifier.net/myhealthway/StructureDefinition/PublicPatient"]},"identifier":[{"type":{"coding":[{"system":"http://myhealthway.go.kr(가칭)","code":"MHID"}]},"system":"미정","value":"10237464"},{"type":{"coding":[{"system":"http://terminology.hl7.org/CodeSystem/v2-0203","code":"NNKOR"}]},"system":"http://mois.go.kr/rnn","value":"9206272******"}],"name":[{"text":"정한나"}]}},"performer":[{"actor":{"reference":"Organization/16200005","resource":{"resourceType":"Organization","id":"16200005","identifier":[{"system":"리소스식별체계(미정)","value":"4c2ff7b4-a22c-4553-bf06-651018c74559"}],"type":[{"coding":[{"system":"미정","code":"미정","display":"약국"}],"text":"약국"}],"name":"화인약국","address":[{"text":"서울특별시 강남구 강남대로"}]}}}],"daysSupply":{"value":3,"unit":"일","system":"http://unitsofmeasure.org","code":"d"},"whenPrepared":"2025-04-10","dosageInstruction":[{"text":"1정","timing":{"repeat":{"extension":[{"url":"https://simplifier.net/myhealthway/StructureDefinition/TimingforPublicMedicationDispense","valueString":"3"}],"frequency":3,"period":1,"periodUnit":"d"}},"doseAndRate":[{"doseQuantity":{"value":1.0}}]}]}},{"resource":{"resourceType":"MedicationDispense","id":"16000006","meta":{"profile":["https://simplifier.net/myhealthway/StructureDefinition/PublicMedicationDispense"]},"identifier":[{"system":"리소스식별자(미정)","value":"70eac441-144d-4774-9eab-edd31c0a5c52"}],"contained":[{"resourceType":"Organization","id":"16200006","identifier":[{"system":"리소스식별체계(미정)","value":"0f610b08-97dd-41d7-bbb0-052bcd46391c"}],"type":[{"coding":[{"system":"미정","code":"미정","display":"약국"}],"text":"약국"}],"name":"반석온누리약국","address":[{"text":"서울특별시 영등포구 영등포로"}]}],"status":"completed","medicationReference":{"reference":"Medication/16100006","resource":{"resourceType":"Medication","id":"16100006","meta":{"profile":["https://simplifier.net/myhealthway/StructureDefinition/PublicMedication"]},"identifier":[{"system":"리소스식별자(미정)","value":"medication1"}],"contained":[{"resourceType":"Substance","id":"163000001","identifier":[{"system":"리소스식별자(미정)","value":"chlorpheniramine maleate"}]}],"code":{"coding":[{"system":"https://biz.kpis.or.kr/CodeSystem/kdcode","code":"642102570","display":"페니라민정(클로르페니라민말레산염)_(2mg/1정)"}],"text":"페니라민정(클로르페니라민말레산염)_(2mg/1정)"},"ingredient":[{"itemReference":{"reference":"Substance/163000001","resource":{"resourceType":"Substance","id":"163000001","identifier":[{"system":"리소스식별자(미정)","value":"chlorpheniramine maleate"}],"code":{"coding":[{"system":"https://www.hira.or.kr","code":"131801ATB","display":"chlorpheniramine maleate"}]}}}}]}},"subject":{"reference":"Patient/10000000","resource":{"resourceType":"Patient","id":"10000000","meta":{"profile":["https://simplifier.net/myhealthway/StructureDefinition/PublicPatient"]},"identifier":[{"type":{"coding":[{"system":"http://myhealthway.go.kr(가칭)","code":"MHID"}]},"system":"미정","value":"10237464"},{"type":{"coding":[{"system":"http://terminology.hl7.org/CodeSystem/v2-0203","code":"NNKOR"}]},"system":"http://mois.go.kr/rnn","value":"9206272******"}],"name":[{"text":"정한나"}]}},"performer":[{"actor":{"reference":"Organization/16200006","resource":{"resourceType":"Organization","id":"16200006","identifier":[{"system":"리소스식별체계(미정)","value":"0f610b08-97dd-41d7-bbb0-052bcd46391c"}],"type":[{"coding":[{"system":"미정","code":"미정","display":"약국"}],"text":"약국"}],"name":"반석온누리약국","address":[{"text":"서울특별시 영등포구 영등포로"}]}}}],"daysSupply":{"value":2,"unit":"일","system":"http://unitsofmeasure.org","code":"d"},"whenPrepared":"2025-02-10","dosageInstruction":[{"text":"1정","timing":{"repeat":{"extension":[{"url":"https://simplifier.net/myhealthway/StructureDefinition/TimingforPublicMedicationDispense","valueString":"3"}],"frequency":3,"period":1,"periodUnit":"d"}},"doseAndRate":[{"doseQuantity":{"value":0.5}}]}]}},{"resource":{"resourceType":"MedicationDispense","id":"16000007","meta":{"profile":["https://simplifier.net/myhealthway/StructureDefinition/PublicMedicationDispense"]},"identifier":[{"system":"리소스식별자(미정)","value":"9529c2fc-69ad-404c-bb9c-edda2302b580"}],"contained":[{"resourceType":"Organization","id":"16200007","identifier":[{"system":"리소스식별체계(미정)","value":"5acd35de-746d-4309-8583-953429d9a7dd"}],"type":[{"coding":[{"system":"미정","code":"미정","display":"약국"}],"text":"약국"}],"name":"반석온누리약국","address":[{"text":"서울특별시 영등포구 영등포로"}]}],"status":"completed","medicationReference":{"reference":"Medication/16100007","resource":{"resourceType":"Medication","id":"16100007","meta":{"profile":["https://simplifier.net/myhealthway/StructureDefinition/PublicMedication"]},"identifier":[{"system":"리소스식별자(미정)","value":"medication1"}],"contained":[{"resourceType":"Substance","id":"163000001","identifier":[{"system":"리소스식별자(미정)","value":"prednisolone"}]}],"code":{"coding":[{"system":"https://biz.kpis.or.kr/CodeSystem/kdcode","code":"642105020","display":"소론도정(프레드니솔론)_(5mg/1정)"}],"text":"소론도정(프레드니솔론)_(5mg/1정)"},"ingredient":[{"itemReference":{"reference":"Substance/163000001","resource":{"resourceType":"Substance","id":"163000001","identifier":[{"system":"리소스식별자(미정)","value":"prednisolone"}],"code":{"coding":[{"system":"https://www.hira.or.kr","code":"217001ATB","display":"prednisolone"}]}}}}]}},"subject":{"reference":"Patient/10000000","resource":{"resourceType":"Patient","id":"10000000","meta":{"profile":["https://simplifier.net/myhealthway/StructureDefinition/PublicPatient"]},"identifier":[{"type":{"coding":[{"system":"http://myhealthway.go.kr(가칭)","code":"MHID"}]},"system":"미정","value":"10237464"},{"type":{"coding":[{"system":"http://terminology.hl7.org/CodeSystem/v2-0203","code":"NNKOR"}]},"system":"http://mois.go.kr/rnn","value":"9206272******"}],"name":[{"text":"정한나"}]}},"performer":[{"actor":{"reference":"Organization/16200007","resource":{"resourceType":"Organization","id":"16200007","identifier":[{"system":"리소스식별체계(미정)","value":"5acd35de-746d-4309-8583-953429d9a7dd"}],"type":[{"coding":[{"system":"미정","code":"미정","display":"약국"}],"text":"약국"}],"name":"반석온누리약국","address":[{"text":"서울특별시 영등포구 영등포로"}]}}}],"daysSupply":{"value":2,"unit":"일","system":"http://unitsofmeasure.org","code":"d"},"whenPrepared":"2025-02-10","dosageInstruction":[{"text":"1정","timing":{"repeat":{"extension":[{"url":"https://simplifier.net/myhealthway/StructureDefinition/TimingforPublicMedicationDispense","valueString":"3"}],"frequency":3,"period":1,"periodUnit":"d"}},"doseAndRate":[{"doseQuantity":{"value":0.5}}]}]}},{"resource":{"resourceType":"MedicationDispense","id":"16000008","meta":{"profile":["https://simplifier.net/myhealthway/StructureDefinition/PublicMedicationDispense"]},"identifier":[{"system":"리소스식별자(미정)","value":"2d2a2310-4c16-4b37-af8c-1bacc52ed56a"}],"contained":[{"resourceType":"Organization","id":"16200008","identifier":[{"system":"리소스식별체계(미정)","value":"55a388ea-11f1-4098-bb01-e3ec0d9cc7ce"}],"type":[{"coding":[{"system":"미정","code":"미정","display":"약국"}],"text":"약국"}],"name":"반석온누리약국","address":[{"text":"서울특별시 영등포구 영등포로"}]}],"status":"completed","medicationReference":{"reference":"Medication/16100008","resource":{"resourceType":"Medication","id":"16100008","meta":{"profile":["https://simplifier.net/myhealthway/StructureDefinition/PublicMedication"]},"identifier":[{"system":"리소스식별자(미정)","value":"medication1"}],"contained":[{"resourceType":"Substance","id":"163000001","identifier":[{"system":"리소스식별자(미정)","value":"mosapride citrate hydrate (as mosapride)"}]}],"code":{"coding":[{"system":"https://biz.kpis.or.kr/CodeSystem/kdcode","code":"654000660","display":"아나모틴정(모사프리드시트르산염이수화물)_(5.29mg/1정)"}],"text":"아나모틴정(모사프리드시트르산염이수화물)_(5.29mg/1정)"},"ingredient":[{"itemReference":{"reference":"Substance/163000001","resource":{"resourceType":"Substance","id":"163000001","identifier":[{"system":"리소스식별자(미정)","value":"mosapride citrate hydrate (as mosapride)"}],"code":{"coding":[{"system":"https://www.hira.or.kr","code":"421001ATB","display":"mosapride citrate hydrate (as mosapride)"}]}}}}]}},"subject":{"reference":"Patient/10000000","resource":{"resourceType":"Patient","id":"10000000","meta":{"profile":["https://simplifier.net/myhealthway/StructureDefinition/PublicPatient"]},"identifier":[{"type":{"coding":[{"system":"http://myhealthway.go.kr(가칭)","code":"MHID"}]},"system":"미정","value":"10237464"},{"type":{"coding":[{"system":"http://terminology.hl7.org/CodeSystem/v2-0203","code":"NNKOR"}]},"system":"http://mois.go.kr/rnn","value":"9206272******"}],"name":[{"text":"정한나"}]}},"performer":[{"actor":{"reference":"Organization/16200008","resource":{"resourceType":"Organization","id":"16200008","identifier":[{"system":"리소스식별체계(미정)","value":"55a388ea-11f1-4098-bb01-e3ec0d9cc7ce"}],"type":[{"coding":[{"system":"미정","code":"미정","display":"약국"}],"text":"약국"}],"name":"반석온누리약국","address":[{"text":"서울특별시 영등포구 영등포로"}]}}}],"daysSupply":{"value":2,"unit":"일","system":"http://unitsofmeasure.org","code":"d"},"whenPrepared":"2025-02-10","dosageInstruction":[{"text":"1정","timing":{"repeat":{"extension":[{"url":"https://simplifier.net/myhealthway/StructureDefinition/TimingforPublicMedicationDispense","valueString":"3"}],"frequency":3,"period":1,"periodUnit":"d"}},"doseAndRate":[{"doseQuantity":{"value":1.0}}]}]}},{"resource":{"resourceType":"MedicationDispense","id":"16000009","meta":{"profile":["https://simplifier.net/myhealthway/StructureDefinition/PublicMedicationDispense"]},"identifier":[{"system":"리소스식별자(미정)","value":"36a67168-6bb0-43a7-949f-01403c93e1e1"}],"contained":[{"resourceType":"Organization","id":"16200009","identifier":[{"system":"리소스식별체계(미정)","value":"f9fddec0-245a-467b-b5f8-9bb9beb4caea"}],"type":[{"coding":[{"system":"미정","code":"미정","display":"약국"}],"text":"약국"}],"name":"반석온누리약국","address":[{"text":"서울특별시 영등포구 영등포로"}]}],"status":"completed","medicationReference":{"reference":"Medication/16100009","resource":{"resourceType":"Medication","id":"16100009","meta":{"profile":["https://simplifier.net/myhealthway/StructureDefinition/PublicMedication"]},"identifier":[{"system":"리소스식별자(미정)","value":"medication1"}],"contained":[{"resourceType":"Substance","id":"163000001","identifier":[{"system":"리소스식별자(미정)","value":"levodropropizine"}]}],"code":{"coding":[{"system":"https://biz.kpis.or.kr/CodeSystem/kdcode","code":"654004230","display":"아나레보정(레보드로프로피진)_(60mg/1정)"}],"text":"아나레보정(레보드로프로피진)_(60mg/1정)"},"ingredient":[{"itemReference":{"reference":"Substance/163000001","resource":{"resourceType":"Substance","id":"163000001","identifier":[{"system":"리소스식별자(미정)","value":"levodropropizine"}],"code":{"coding":[{"system":"https://www.hira.or.kr","code":"183102ATB","display":"levodropropizine"}]}}}}]}},"subject":{"reference":"Patient/10000000","resource":{"resourceType":"Patient","id":"10000000","meta":{"profile":["https://simplifier.net/myhealthway/StructureDefinition/PublicPatient"]},"identifier":[{"type":{"coding":[{"system":"http://myhealthway.go.kr(가칭)","code":"MHID"}]},"system":"미정","value":"10237464"},{"type":{"coding":[{"system":"http://terminology.hl7.org/CodeSystem/v2-0203","code":"NNKOR"}]},"system":"http://mois.go.kr/rnn","value":"9206272******"}],"name":[{"text":"정한나"}]}},"performer":[{"actor":{"reference":"Organization/16200009","resource":{"resourceType":"Organization","id":"16200009","identifier":[{"system":"리소스식별체계(미정)","value":"f9fddec0-245a-467b-b5f8-9bb9beb4caea"}],"type":[{"coding":[{"system":"미정","code":"미정","display":"약국"}],"text":"약국"}],"name":"반석온누리약국","address":[{"text":"서울특별시 영등포구 영등포로"}]}}}],"daysSupply":{"value":2,"unit":"일","system":"http://unitsofmeasure.org","code":"d"},"whenPrepared":"2025-02-10","dosageInstruction":[{"text":"1정","timing":{"repeat":{"extension":[{"url":"https://simplifier.net/myhealthway/StructureDefinition/TimingforPublicMedicationDispense","valueString":"3"}],"frequency":3,"period":1,"periodUnit":"d"}},"doseAndRate":[{"doseQuantity":{"value":1.0}}]}]}},{"resource":{"resourceType":"MedicationDispense","id":"16000010","meta":{"profile":["https://simplifier.net/myhealthway/StructureDefinition/PublicMedicationDispense"]},"identifier":[{"system":"리소스식별자(미정)","value":"e80f29d7-8c7b-4f8a-9829-20a1da1df8b6"}],"contained":[{"resourceType":"Organization","id":"16200010","identifier":[{"system":"리소스식별체계(미정)","value":"ee9db4f2-a612-441c-9ea1-6263e4237059"}],"type":[{"coding":[{"system":"미정","code":"미정","display":"약국"}],"text":"약국"}],"name":"반석온누리약국","address":[{"text":"서울특별시 영등포구 영등포로"}]}],"status":"completed","medicationReference":{"reference":"Medication/16100010","resource":{"resourceType":"Medication","id":"16100010","meta":{"profile":["https://simplifier.net/myhealthway/StructureDefinition/PublicMedication"]},"identifier":[{"system":"리소스식별자(미정)","value":"medication1"}],"contained":[{"resourceType":"Substance","id":"163000001","identifier":[{"system":"리소스식별자(미정)","value":"acetaminophen(encapsulated)"}]}],"code":{"coding":[{"system":"https://biz.kpis.or.kr/CodeSystem/kdcode","code":"698003380","display":"아니스펜8시간이알서방정(아세트아미노펜)_(0.65g/1정)"}],"text":"아니스펜8시간이알서방정(아세트아미노펜)_(0.65g/1정)"},"ingredient":[{"itemReference":{"reference":"Substance/163000001","resource":{"resourceType":"Substance","id":"163000001","identifier":[{"system":"리소스식별자(미정)","value":"acetaminophen(encapsulated)"}],"code":{"coding":[{"system":"https://www.hira.or.kr","code":"101430ATR","display":"acetaminophen(encapsulated)"}]}}}}]}},"subject":{"reference":"Patient/10000000","resource":{"resourceType":"Patient","id":"10000000","meta":{"profile":["https://simplifier.net/myhealthway/StructureDefinition/PublicPatient"]},"identifier":[{"type":{"coding":[{"system":"http://myhealthway.go.kr(가칭)","code":"MHID"}]},"system":"미정","value":"10237464"},{"type":{"coding":[{"system":"http://terminology.hl7.org/CodeSystem/v2-0203","code":"NNKOR"}]},"system":"http://mois.go.kr/rnn","value":"9206272******"}],"name":[{"text":"정한나"}]}},"performer":[{"actor":{"reference":"Organization/16200010","resource":{"resourceType":"Organization","id":"16200010","identifier":[{"system":"리소스식별체계(미정)","value":"ee9db4f2-a612-441c-9ea1-6263e4237059"}],"type":[{"coding":[{"system":"미정","code":"미정","display":"약국"}],"text":"약국"}],"name":"반석온누리약국","address":[{"text":"서울특별시 영등포구 영등포로"}]}}}],"daysSupply":{"value":2,"unit":"일","system":"http://unitsofmeasure.org","code":"d"},"whenPrepared":"2025-02-10","dosageInstruction":[{"text":"1정","timing":{"repeat":{"extension":[{"url":"https://simplifier.net/myhealthway/StructureDefinition/TimingforPublicMedicationDispense","valueString":"4"}],"frequency":4,"period":1,"periodUnit":"d"}},"doseAndRate":[{"doseQuantity":{"value":1.0}}]}]}},{"resource":{"resourceType":"MedicationDispense","id":"16000011","meta":{"profile":["https://simplifier.net/myhealthway/StructureDefinition/PublicMedicationDispense"]},"identifier":[{"system":"리소스식별자(미정)","value":"1e26e376-21d3-430e-b80f-9c34693d0ea7"}],"contained":[{"resourceType":"Organization","id":"16200011","identifier":[{"system":"리소스식별체계(미정)","value":"36c273f5-b73d-4c43-bd5f-68aebc9abd7b"}],"type":[{"coding":[{"system":"미정","code":"미정","display":"약국"}],"text":"약국"}],"name":"포도약국","address":[{"text":"서울특별시 마포구 마포대로"}]}],"status":"completed","medicationReference":{"reference":"Medication/16100011","resource":{"resourceType":"Medication","id":"16100011","meta":{"profile":["https://simplifier.net/myhealthway/StructureDefinition/PublicMedication"]},"identifier":[{"system":"리소스식별자(미정)","value":"medication1"}],"contained":[{"resourceType":"Substance","id":"163000001","identifier":[{"system":"리소스식별자(미정)","value":"cefuroxime axetil (as cefuroxime)"}]}],"code":{"coding":[{"system":"https://biz.kpis.or.kr/CodeSystem/kdcode","code":"643702060","display":"진세프정(세푸록심악세틸)(수출명:진세프틸정,제프렉소민정)_(0.30072g/1정)"}],"text":"진세프정(세푸록심악세틸)(수출명:진세프틸정,제프렉소민정)_(0.30072g/1정)"},"ingredient":[{"itemReference":{"reference":"Substance/163000001","resource":{"resourceType":"Substance","id":"163000001","identifier":[{"system":"리소스식별자(미정)","value":"cefuroxime axetil (as cefuroxime)"}],"code":{"coding":[{"system":"https://www.hira.or.kr","code":"128903ATB","display":"cefuroxime axetil (as cefuroxime)"}]}}}}]}},"subject":{"reference":"Patient/10000000","resource":{"resourceType":"Patient","id":"10000000","meta":{"profile":["https://simplifier.net/myhealthway/StructureDefinition/PublicPatient"]},"identifier":[{"type":{"coding":[{"system":"http://myhealthway.go.kr(가칭)","code":"MHID"}]},"system":"미정","value":"10237464"},{"type":{"coding":[{"system":"http://terminology.hl7.org/CodeSystem/v2-0203","code":"NNKOR"}]},"system":"http://mois.go.kr/rnn","value":"9206272******"}],"name":[{"text":"정한나"}]}},"performer":[{"actor":{"reference":"Organization/16200011","resource":{"resourceType":"Organization","id":"16200011","identifier":[{"system":"리소스식별체계(미정)","value":"36c273f5-b73d-4c43-bd5f-68aebc9abd7b"}],"type":[{"coding":[{"system":"미정","code":"미정","display":"약국"}],"text":"약국"}],"name":"포도약국","address":[{"text":"서울특별시 마포구 마포대로"}]}}}],"daysSupply":{"value":3,"unit":"일","system":"http://unitsofmeasure.org","code":"d"},"whenPrepared":"2024-11-08","dosageInstruction":[{"text":"1정","timing":{"repeat":{"extension":[{"url":"https://simplifier.net/myhealthway/StructureDefinition/TimingforPublicMedicationDispense","valueString":"2"}],"frequency":2,"period":1,"periodUnit":"d"}},"doseAndRate":[{"doseQuantity":{"value":1.0}}]}]}},{"resource":{"resourceType":"MedicationDispense","id":"16000012","meta":{"profile":["https://simplifier.net/myhealthway/StructureDefinition/PublicMedicationDispense"]},"identifier":[{"system":"리소스식별자(미정)","value":"e2e3d145-17de-4535-942c-0e4f8fdb8a4f"}],"contained":[{"resourceType":"Organization","id":"16200012","identifier":[{"system":"리소스식별체계(미정)","value":"0af27c8a-d5ec-4bd1-910c-abb3f6b8ea95"}],"type":[{"coding":[{"system":"미정","code":"미정","display":"약국"}],"text":"약국"}],"name":"포도약국","address":[{"text":"서울특별시 마포구 마포대로"}]}],"status":"completed","medicationReference":{"reference":"Medication/16100012","resource":{"resourceType":"Medication","id":"16100012","meta":{"profile":["https://simplifier.net/myhealthway/StructureDefinition/PublicMedication"]},"identifier":[{"system":"리소스식별자(미정)","value":"medication1"}],"contained":[{"resourceType":"Substance","id":"163000001","identifier":[{"system":"리소스식별자(미정)","value":"pseudoephedrine hydrochloride"}]}],"code":{"coding":[{"system":"https://biz.kpis.or.kr/CodeSystem/kdcode","code":"643900710","display":"슈다페드정(슈도에페드린염산염)_(60mg/1정)"}],"text":"슈다페드정(슈도에페드린염산염)_(60mg/1정)"},"ingredient":[{"itemReference":{"reference":"Substance/163000001","resource":{"resourceType":"Substance","id":"163000001","identifier":[{"system":"리소스식별자(미정)","value":"pseudoephedrine hydrochloride"}],"code":{"coding":[{"system":"https://www.hira.or.kr","code":"220902ATB","display":"pseudoephedrine hydrochloride"}]}}}}]}},"subject":{"reference":"Patient/10000000","resource":{"resourceType":"Patient","id":"10000000","meta":{"profile":["https://simplifier.net/myhealthway/StructureDefinition/PublicPatient"]},"identifier":[{"type":{"coding":[{"system":"http://myhealthway.go.kr(가칭)","code":"MHID"}]},"system":"미정","value":"10237464"},{"type":{"coding":[{"system":"http://terminology.hl7.org/CodeSystem/v2-0203","code":"NNKOR"}]},"system":"http://mois.go.kr/rnn","value":"9206272******"}],"name":[{"text":"정한나"}]}},"performer":[{"actor":{"reference":"Organization/16200012","resource":{"resourceType":"Organization","id":"16200012","identifier":[{"system":"리소스식별체계(미정)","value":"0af27c8a-d5ec-4bd1-910c-abb3f6b8ea95"}],"type":[{"coding":[{"system":"미정","code":"미정","display":"약국"}],"text":"약국"}],"name":"포도약국","address":[{"text":"서울특별시 마포구 마포대로"}]}}}],"daysSupply":{"value":3,"unit":"일","system":"http://unitsofmeasure.org","code":"d"},"whenPrepared":"2024-11-08","dosageInstruction":[{"text":"1정","timing":{"repeat":{"extension":[{"url":"https://simplifier.net/myhealthway/StructureDefinition/TimingforPublicMedicationDispense","valueString":"2"}],"frequency":2,"period":1,"periodUnit":"d"}},"doseAndRate":[{"doseQuantity":{"value":0.5}}]}]}},{"resource":{"resourceType":"MedicationDispense","id":"16000013","meta":{"profile":["https://simplifier.net/myhealthway/StructureDefinition/PublicMedicationDispense"]},"identifier":[{"system":"리소스식별자(미정)","value":"4743b211-7cbe-4a90-a5be-2a941d0f6498"}],"contained":[{"resourceType":"Organization","id":"16200013","identifier":[{"system":"리소스식별체계(미정)","value":"0a3a7d35-0178-4cf2-bdad-82158b773660"}],"type":[{"coding":[{"system":"미정","code":"미정","display":"약국"}],"text":"약국"}],"name":"포도약국","address":[{"text":"서울특별시 마포구 마포대로"}]}],"status":"completed","medicationReference":{"reference":"Medication/16100013","resource":{"resourceType":"Medication","id":"16100013","meta":{"profile":["https://simplifier.net/myhealthway/StructureDefinition/PublicMedication"]},"identifier":[{"system":"리소스식별자(미정)","value":"medication1"}],"contained":[{"resourceType":"Substance","id":"163000001","identifier":[{"system":"리소스식별자(미정)","value":"mosapride citrate hydrate (as mosapride)"}]}],"code":{"coding":[{"system":"https://biz.kpis.or.kr/CodeSystem/kdcode","code":"647804090","display":"모메릭정5밀리그램(모사프리드시트르산염수화물)_(5.29mg/1정)"}],"text":"모메릭정5밀리그램(모사프리드시트르산염수화물)_(5.29mg/1정)"},"ingredient":[{"itemReference":{"reference":"Substance/163000001","resource":{"resourceType":"Substance","id":"163000001","identifier":[{"system":"리소스식별자(미정)","value":"mosapride citrate hydrate (as mosapride)"}],"code":{"coding":[{"system":"https://www.hira.or.kr","code":"421001ATB","display":"mosapride citrate hydrate (as mosapride)"}]}}}}]}},"subject":{"reference":"Patient/10000000","resource":{"resourceType":"Patient","id":"10000000","meta":{"profile":["https://simplifier.net/myhealthway/StructureDefinition/PublicPatient"]},"identifier":[{"type":{"coding":[{"system":"http://myhealthway.go.kr(가칭)","code":"MHID"}]},"system":"미정","value":"10237464"},{"type":{"coding":[{"system":"http://terminology.hl7.org/CodeSystem/v2-0203","code":"NNKOR"}]},"system":"http://mois.go.kr/rnn","value":"9206272******"}],"name":[{"text":"정한나"}]}},"performer":[{"actor":{"reference":"Organization/16200013","resource":{"resourceType":"Organization","id":"16200013","identifier":[{"system":"리소스식별체계(미정)","value":"0a3a7d35-0178-4cf2-bdad-82158b773660"}],"type":[{"coding":[{"system":"미정","code":"미정","display":"약국"}],"text":"약국"}],"name":"포도약국","address":[{"text":"서울특별시 마포구 마포대로"}]}}}],"daysSupply":{"value":3,"unit":"일","system":"http://unitsofmeasure.org","code":"d"},"whenPrepared":"2024-11-08","dosageInstruction":[{"text":"1정","timing":{"repeat":{"extension":[{"url":"https://simplifier.net/myhealthway/StructureDefinition/TimingforPublicMedicationDispense","valueString":"2"}],"frequency":2,"period":1,"periodUnit":"d"}},"doseAndRate":[{"doseQuantity":{"value":1.0}}]}]}},{"resource":{"resourceType":"MedicationDispense","id":"16000014","meta":{"profile":["https://simplifier.net/myhealthway/StructureDefinition/PublicMedicationDispense"]},"identifier":[{"system":"리소스식별자(미정)","value":"88e11b15-b1af-4347-b49a-fef69e91d88c"}],"contained":[{"resourceType":"Organization","id":"16200014","identifier":[{"system":"리소스식별체계(미정)","value":"478b8727-fe78-4304-bc24-47c6340782c7"}],"type":[{"coding":[{"system":"미정","code":"미정","display":"약국"}],"text":"약국"}],"name":"포도약국","address":[{"text":"서울특별시 마포구 마포대로"}]}],"status":"completed","medicationReference":{"reference":"Medication/16100014","resource":{"resourceType":"Medication","id":"16100014","meta":{"profile":["https://simplifier.net/myhealthway/StructureDefinition/PublicMedication"]},"identifier":[{"system":"리소스식별자(미정)","value":"medication1"}],"contained":[{"resourceType":"Substance","id":"163000001","identifier":[{"system":"리소스식별자(미정)","value":"erdosteine"}]}],"code":{"coding":[{"system":"https://biz.kpis.or.kr/CodeSystem/kdcode","code":"647804400","display":"브론펙트캡슐(에르도스테인)_(0.3g/1캡슐)"}],"text":"브론펙트캡슐(에르도스테인)_(0.3g/1캡슐)"},"ingredient":[{"itemReference":{"reference":"Substance/163000001","resource":{"resourceType":"Substance","id":"163000001","identifier":[{"system":"리소스식별자(미정)","value":"erdosteine"}],"code":{"coding":[{"system":"https://www.hira.or.kr","code":"153101ACH","display":"erdosteine"}]}}}}]}},"subject":{"reference":"Patient/10000000","resource":{"resourceType":"Patient","id":"10000000","meta":{"profile":["https://simplifier.net/myhealthway/StructureDefinition/PublicPatient"]},"identifier":[{"type":{"coding":[{"system":"http://myhealthway.go.kr(가칭)","code":"MHID"}]},"system":"미정","value":"10237464"},{"type":{"coding":[{"system":"http://terminology.hl7.org/CodeSystem/v2-0203","code":"NNKOR"}]},"system":"http://mois.go.kr/rnn","value":"9206272******"}],"name":[{"text":"정한나"}]}},"performer":[{"actor":{"reference":"Organization/16200014","resource":{"resourceType":"Organization","id":"16200014","identifier":[{"system":"리소스식별체계(미정)","value":"478b8727-fe78-4304-bc24-47c6340782c7"}],"type":[{"coding":[{"system":"미정","code":"미정","display":"약국"}],"text":"약국"}],"name":"포도약국","address":[{"text":"서울특별시 마포구 마포대로"}]}}}],"daysSupply":{"value":3,"unit":"일","system":"http://unitsofmeasure.org","code":"d"},"whenPrepared":"2024-11-08","dosageInstruction":[{"text":"1캡슐","timing":{"repeat":{"extension":[{"url":"https://simplifier.net/myhealthway/StructureDefinition/TimingforPublicMedicationDispense","valueString":"2"}],"frequency":2,"period":1,"periodUnit":"d"}},"doseAndRate":[{"doseQuantity":{"value":1.0}}]}]}},{"resource":{"resourceType":"MedicationDispense","id":"16000015","meta":{"profile":["https://simplifier.net/myhealthway/StructureDefinition/PublicMedicationDispense"]},"identifier":[{"system":"리소스식별자(미정)","value":"4aea18c0-a35d-4e0a-be4c-0e2f6c774fa3"}],"contained":[{"resourceType":"Organization","id":"16200015","identifier":[{"system":"리소스식별체계(미정)","value":"94e102cb-9970-47c7-8bab-e9319c10b24e"}],"type":[{"coding":[{"system":"미정","code":"미정","display":"약국"}],"text":"약국"}],"name":"포도약국","address":[{"text":"서울특별시 마포구 마포대로"}]}],"status":"completed","medicationReference":{"reference":"Medication/16100015","resource":{"resourceType":"Medication","id":"16100015","meta":{"profile":["https://simplifier.net/myhealthway/StructureDefinition/PublicMedication"]},"identifier":[{"system":"리소스식별자(미정)","value":"medication1"}],"contained":[{"resourceType":"Substance","id":"163000001","identifier":[{"system":"리소스식별자(미정)","value":"cefuroxime axetil (as cefuroxime)"}]}],"code":{"coding":[{"system":"https://biz.kpis.or.kr/CodeSystem/kdcode","code":"643702060","display":"진세프정(세푸록심악세틸)(수출명:진세프틸정,제프렉소민정)_(0.30072g/1정)"}],"text":"진세프정(세푸록심악세틸)(수출명:진세프틸정,제프렉소민정)_(0.30072g/1정)"},"ingredient":[{"itemReference":{"reference":"Substance/163000001","resource":{"resourceType":"Substance","id":"163000001","identifier":[{"system":"리소스식별자(미정)","value":"cefuroxime axetil (as cefuroxime)"}],"code":{"coding":[{"system":"https://www.hira.or.kr","code":"128903ATB","display":"cefuroxime axetil (as cefuroxime)"}]}}}}]}},"subject":{"reference":"Patient/10000000","resource":{"resourceType":"Patient","id":"10000000","meta":{"profile":["https://simplifier.net/myhealthway/StructureDefinition/PublicPatient"]},"identifier":[{"type":{"coding":[{"system":"http://myhealthway.go.kr(가칭)","code":"MHID"}]},"system":"미정","value":"10237464"},{"type":{"coding":[{"system":"http://terminology.hl7.org/CodeSystem/v2-0203","code":"NNKOR"}]},"system":"http://mois.go.kr/rnn","value":"9206272******"}],"name":[{"text":"정한나"}]}},"performer":[{"actor":{"reference":"Organization/16200015","resource":{"resourceType":"Organization","id":"16200015","identifier":[{"system":"리소스식별체계(미정)","value":"94e102cb-9970-47c7-8bab-e9319c10b24e"}],"type":[{"coding":[{"system":"미정","code":"미정","display":"약국"}],"text":"약국"}],"name":"포도약국","address":[{"text":"서울특별시 마포구 마포대로"}]}}}],"daysSupply":{"value":3,"unit":"일","system":"http://unitsofmeasure.org","code":"d"},"whenPrepared":"2024-11-06","dosageInstruction":[{"text":"1정","timing":{"repeat":{"extension":[{"url":"https://simplifier.net/myhealthway/StructureDefinition/TimingforPublicMedicationDispense","valueString":"2"}],"frequency":2,"period":1,"periodUnit":"d"}},"doseAndRate":[{"doseQuantity":{"value":1.0}}]}]}},{"resource":{"resourceType":"MedicationDispense","id":"16000016","meta":{"profile":["https://simplifier.net/myhealthway/StructureDefinition/PublicMedicationDispense"]},"identifier":[{"system":"리소스식별자(미정)","value":"42ab4707-70c4-4701-9991-0ca9cef9ab3f"}],"contained":[{"resourceType":"Organization","id":"16200016","identifier":[{"system":"리소스식별체계(미정)","value":"7984fb4b-9384-4738-8535-715da8d8234c"}],"type":[{"coding":[{"system":"미정","code":"미정","display":"약국"}],"text":"약국"}],"name":"포도약국","address":[{"text":"서울특별시 마포구 마포대로"}]}],"status":"completed","medicationReference":{"reference":"Medication/16100016","resource":{"resourceType":"Medication","id":"16100016","meta":{"profile":["https://simplifier.net/myhealthway/StructureDefinition/PublicMedication"]},"identifier":[{"system":"리소스식별자(미정)","value":"medication1"}],"contained":[{"resourceType":"Substance","id":"163000001","identifier":[{"system":"리소스식별자(미정)","value":"pseudoephedrine hydrochloride"}]}],"code":{"coding":[{"system":"https://biz.kpis.or.kr/CodeSystem/kdcode","code":"643900710","display":"슈다페드정(슈도에페드린염산염)_(60mg/1정)"}],"text":"슈다페드정(슈도에페드린염산염)_(60mg/1정)"},"ingredient":[{"itemReference":{"reference":"Substance/163000001","resource":{"resourceType":"Substance","id":"163000001","identifier":[{"system":"리소스식별자(미정)","value":"pseudoephedrine hydrochloride"}],"code":{"coding":[{"system":"https://www.hira.or.kr","code":"220902ATB","display":"pseudoephedrine hydrochloride"}]}}}}]}},"subject":{"reference":"Patient/10000000","resource":{"resourceType":"Patient","id":"10000000","meta":{"profile":["https://simplifier.net/myhealthway/StructureDefinition/PublicPatient"]},"identifier":[{"type":{"coding":[{"system":"http://myhealthway.go.kr(가칭)","code":"MHID"}]},"system":"미정","value":"10237464"},{"type":{"coding":[{"system":"http://terminology.hl7.org/CodeSystem/v2-0203","code":"NNKOR"}]},"system":"http://mois.go.kr/rnn","value":"9206272******"}],"name":[{"text":"정한나"}]}},"performer":[{"actor":{"reference":"Organization/16200016","resource":{"resourceType":"Organization","id":"16200016","identifier":[{"system":"리소스식별체계(미정)","value":"7984fb4b-9384-4738-8535-715da8d8234c"}],"type":[{"coding":[{"system":"미정","code":"미정","display":"약국"}],"text":"약국"}],"name":"포도약국","address":[{"text":"서울특별시 마포구 마포대로"}]}}}],"daysSupply":{"value":3,"unit":"일","system":"http://unitsofmeasure.org","code":"d"},"whenPrepared":"2024-11-06","dosageInstruction":[{"text":"1정","timing":{"repeat":{"extension":[{"url":"https://simplifier.net/myhealthway/StructureDefinition/TimingforPublicMedicationDispense","valueString":"2"}],"frequency":2,"period":1,"periodUnit":"d"}},"doseAndRate":[{"doseQuantity":{"value":0.5}}]}]}},{"resource":{"resourceType":"MedicationDispense","id":"16000017","meta":{"profile":["https://simplifier.net/myhealthway/StructureDefinition/PublicMedicationDispense"]},"identifier":[{"system":"리소스식별자(미정)","value":"9af903bc-94dd-49c4-adc2-a507e6113426"}],"contained":[{"resourceType":"Organization","id":"16200017","identifier":[{"system":"리소스식별체계(미정)","value":"dd9474b0-1850-49b8-b282-d274762ea24c"}],"type":[{"coding":[{"system":"미정","code":"미정","display":"약국"}],"text":"약국"}],"name":"포도약국","address":[{"text":"서울특별시 마포구 마포대로"}]}],"status":"completed","medicationReference":{"reference":"Medication/16100017","resource":{"resourceType":"Medication","id":"16100017","meta":{"profile":["https://simplifier.net/myhealthway/StructureDefinition/PublicMedication"]},"identifier":[{"system":"리소스식별자(미정)","value":"medication1"}],"contained":[{"resourceType":"Substance","id":"163000001","identifier":[{"system":"리소스식별자(미정)","value":"mosapride citrate hydrate (as mosapride)"}]}],"code":{"coding":[{"system":"https://biz.kpis.or.kr/CodeSystem/kdcode","code":"647804090","display":"모메릭정5밀리그램(모사프리드시트르산염수화물)_(5.29mg/1정)"}],"text":"모메릭정5밀리그램(모사프리드시트르산염수화물)_(5.29mg/1정)"},"ingredient":[{"itemReference":{"reference":"Substance/163000001","resource":{"resourceType":"Substance","id":"163000001","identifier":[{"system":"리소스식별자(미정)","value":"mosapride citrate hydrate (as mosapride)"}],"code":{"coding":[{"system":"https://www.hira.or.kr","code":"421001ATB","display":"mosapride citrate hydrate (as mosapride)"}]}}}}]}},"subject":{"reference":"Patient/10000000","resource":{"resourceType":"Patient","id":"10000000","meta":{"profile":["https://simplifier.net/myhealthway/StructureDefinition/PublicPatient"]},"identifier":[{"type":{"coding":[{"system":"http://myhealthway.go.kr(가칭)","code":"MHID"}]},"system":"미정","value":"10237464"},{"type":{"coding":[{"system":"http://terminology.hl7.org/CodeSystem/v2-0203","code":"NNKOR"}]},"system":"http://mois.go.kr/rnn","value":"9206272******"}],"name":[{"text":"정한나"}]}},"performer":[{"actor":{"reference":"Organization/16200017","resource":{"resourceType":"Organization","id":"16200017","identifier":[{"system":"리소스식별체계(미정)","value":"dd9474b0-1850-49b8-b282-d274762ea24c"}],"type":[{"coding":[{"system":"미정","code":"미정","display":"약국"}],"text":"약국"}],"name":"포도약국","address":[{"text":"서울특별시 마포구 마포대로"}]}}}],"daysSupply":{"value":3,"unit":"일","system":"http://unitsofmeasure.org","code":"d"},"whenPrepared":"2024-11-06","dosageInstruction":[{"text":"1정","timing":{"repeat":{"extension":[{"url":"https://simplifier.net/myhealthway/StructureDefinition/TimingforPublicMedicationDispense","valueString":"2"}],"frequency":2,"period":1,"periodUnit":"d"}},"doseAndRate":[{"doseQuantity":{"value":1.0}}]}]}},{"resource":{"resourceType":"MedicationDispense","id":"16000018","meta":{"profile":["https://simplifier.net/myhealthway/StructureDefinition/PublicMedicationDispense"]},"identifier":[{"system":"리소스식별자(미정)","value":"38f21a44-7476-435b-a03c-ca5c83f8113b"}],"contained":[{"resourceType":"Organization","id":"16200018","identifier":[{"system":"리소스식별체계(미정)","value":"394a20ec-e613-4fe3-b628-176c1baef52e"}],"type":[{"coding":[{"system":"미정","code":"미정","display":"약국"}],"text":"약국"}],"name":"포도약국","address":[{"text":"서울특별시 마포구 마포대로"}]}],"status":"completed","medicationReference":{"reference":"Medication/16100018","resource":{"resourceType":"Medication","id":"16100018","meta":{"profile":["https://simplifier.net/myhealthway/StructureDefinition/PublicMedication"]},"identifier":[{"system":"리소스식별자(미정)","value":"medication1"}],"contained":[{"resourceType":"Substance","id":"163000001","identifier":[{"system":"리소스식별자(미정)","value":"erdosteine"}]}],"code":{"coding":[{"system":"https://biz.kpis.or.kr/CodeSystem/kdcode","code":"647804400","display":"브론펙트캡슐(에르도스테인)_(0.3g/1캡슐)"}],"text":"브론펙트캡슐(에르도스테인)_(0.3g/1캡슐)"},"ingredient":[{"itemReference":{"reference":"Substance/163000001","resource":{"resourceType":"Substance","id":"163000001","identifier":[{"system":"리소스식별자(미정)","value":"erdosteine"}],"code":{"coding":[{"system":"https://www.hira.or.kr","code":"153101ACH","display":"erdosteine"}]}}}}]}},"subject":{"reference":"Patient/10000000","resource":{"resourceType":"Patient","id":"10000000","meta":{"profile":["https://simplifier.net/myhealthway/StructureDefinition/PublicPatient"]},"identifier":[{"type":{"coding":[{"system":"http://myhealthway.go.kr(가칭)","code":"MHID"}]},"system":"미정","value":"10237464"},{"type":{"coding":[{"system":"http://terminology.hl7.org/CodeSystem/v2-0203","code":"NNKOR"}]},"system":"http://mois.go.kr/rnn","value":"9206272******"}],"name":[{"text":"정한나"}]}},"performer":[{"actor":{"reference":"Organization/16200018","resource":{"resourceType":"Organization","id":"16200018","identifier":[{"system":"리소스식별체계(미정)","value":"394a20ec-e613-4fe3-b628-176c1baef52e"}],"type":[{"coding":[{"system":"미정","code":"미정","display":"약국"}],"text":"약국"}],"name":"포도약국","address":[{"text":"서울특별시 마포구 마포대로"}]}}}],"daysSupply":{"value":3,"unit":"일","system":"http://unitsofmeasure.org","code":"d"},"whenPrepared":"2024-11-06","dosageInstruction":[{"text":"1캡슐","timing":{"repeat":{"extension":[{"url":"https://simplifier.net/myhealthway/StructureDefinition/TimingforPublicMedicationDispense","valueString":"2"}],"frequency":2,"period":1,"periodUnit":"d"}},"doseAndRate":[{"doseQuantity":{"value":1.0}}]}]}},{"resource":{"resourceType":"MedicationDispense","id":"16000019","meta":{"profile":["https://simplifier.net/myhealthway/StructureDefinition/PublicMedicationDispense"]},"identifier":[{"system":"리소스식별자(미정)","value":"ca9d0e24-68bf-44fd-8472-5194546e50a2"}],"contained":[{"resourceType":"Organization","id":"16200019","identifier":[{"system":"리소스식별체계(미정)","value":"5953ab82-abb0-4a07-bc1a-27c2d52058c6"}],"type":[{"coding":[{"system":"미정","code":"미정","display":"약국"}],"text":"약국"}],"name":"마포온누리약국","address":[{"text":"서울특별시 마포구 큰우물로"}]}],"status":"completed","medicationReference":{"reference":"Medication/16100019","resource":{"resourceType":"Medication","id":"16100019","meta":{"profile":["https://simplifier.net/myhealthway/StructureDefinition/PublicMedication"]},"identifier":[{"system":"리소스식별자(미정)","value":"medication1"}],"contained":[{"resourceType":"Substance","id":"163000001","identifier":[{"system":"리소스식별자(미정)","value":"tiropramide hydrochloride"}]}],"code":{"coding":[{"system":"https://biz.kpis.or.kr/CodeSystem/kdcode","code":"641602470","display":"티로파정(티로프라미드염산염)_(0.1g/1정)"}],"text":"티로파정(티로프라미드염산염)_(0.1g/1정)"},"ingredient":[{"itemReference":{"reference":"Substance/163000001","resource":{"resourceType":"Substance","id":"163000001","identifier":[{"system":"리소스식별자(미정)","value":"tiropramide hydrochloride"}],"code":{"coding":[{"system":"https://www.hira.or.kr","code":"240301ATB","display":"tiropramide hydrochloride"}]}}}}]}},"subject":{"reference":"Patient/10000000","resource":{"resourceType":"Patient","id":"10000000","meta":{"profile":["https://simplifier.net/myhealthway/StructureDefinition/PublicPatient"]},"identifier":[{"type":{"coding":[{"system":"http://myhealthway.go.kr(가칭)","code":"MHID"}]},"system":"미정","value":"10237464"},{"type":{"coding":[{"system":"http://terminology.hl7.org/CodeSystem/v2-0203","code":"NNKOR"}]},"system":"http://mois.go.kr/rnn","value":"9206272******"}],"name":[{"text":"정한나"}]}},"performer":[{"actor":{"reference":"Organization/16200019","resource":{"resourceType":"Organization","id":"16200019","identifier":[{"system":"리소스식별체계(미정)","value":"5953ab82-abb0-4a07-bc1a-27c2d52058c6"}],"type":[{"coding":[{"system":"미정","code":"미정","display":"약국"}],"text":"약국"}],"name":"마포온누리약국","address":[{"text":"서울특별시 마포구 큰우물로"}]}}}],"daysSupply":{"value":3,"unit":"일","system":"http://unitsofmeasure.org","code":"d"},"whenPrepared":"2024-08-06","dosageInstruction":[{"text":"1정","timing":{"repeat":{"extension":[{"url":"https://simplifier.net/myhealthway/StructureDefinition/TimingforPublicMedicationDispense","valueString":"3"}],"frequency":3,"period":1,"periodUnit":"d"}},"doseAndRate":[{"doseQuantity":{"value":1.0}}]}]}},{"resource":{"resourceType":"MedicationDispense","id":"16000020","meta":{"profile":["https://simplifier.net/myhealthway/StructureDefinition/PublicMedicationDispense"]},"identifier":[{"system":"리소스식별자(미정)","value":"5e56d02d-50af-4375-915e-f5ce9c85f05c"}],"contained":[{"resourceType":"Organization","id":"16200020","identifier":[{"system":"리소스식별체계(미정)","value":"55dd6aa2-de05-4b36-93b2-746733186d86"}],"type":[{"coding":[{"system":"미정","code":"미정","display":"약국"}],"text":"약국"}],"name":"마포온누리약국","address":[{"text":"서울특별시 마포구 큰우물로"}]}],"status":"completed","medicationReference":{"reference":"Medication/16100020","resource":{"resourceType":"Medication","id":"16100020","meta":{"profile":["https://simplifier.net/myhealthway/StructureDefinition/PublicMedication"]},"identifier":[{"system":"리소스식별자(미정)","value":"medication1"}],"contained":[{"resourceType":"Substance","id":"163000001","identifier":[{"system":"리소스식별자(미정)","value":"dioctahedral smectite"}]}],"code":{"coding":[{"system":"https://biz.kpis.or.kr/CodeSystem/kdcode","code":"641607171","display":"스타빅현탁액(디옥타헤드랄스멕타이트)_(3g/20mL)"}],"text":"스타빅현탁액(디옥타헤드랄스멕타이트)_(3g/20mL)"},"ingredient":[{"itemReference":{"reference":"Substance/163000001","resource":{"resourceType":"Substance","id":"163000001","identifier":[{"system":"리소스식별자(미정)","value":"dioctahedral smectite"}],"code":{"coding":[{"system":"https://www.hira.or.kr","code":"146431ASS","display":"dioctahedral smectite"}]}}}}]}},"subject":{"reference":"Patient/10000000","resource":{"resourceType":"Patient","id":"10000000","meta":{"profile":["https://simplifier.net/myhealthway/StructureDefinition/PublicPatient"]},"identifier":[{"type":{"coding":[{"system":"http://myhealthway.go.kr(가칭)","code":"MHID"}]},"system":"미정","value":"10237464"},{"type":{"coding":[{"system":"http://terminology.hl7.org/CodeSystem/v2-0203","code":"NNKOR"}]},"system":"http://mois.go.kr/rnn","value":"9206272******"}],"name":[{"text":"정한나"}]}},"performer":[{"actor":{"reference":"Organization/16200020","resource":{"resourceType":"Organization","id":"16200020","identifier":[{"system":"리소스식별체계(미정)","value":"55dd6aa2-de05-4b36-93b2-746733186d86"}],"type":[{"coding":[{"system":"미정","code":"미정","display":"약국"}],"text":"약국"}],"name":"마포온누리약국","address":[{"text":"서울특별시 마포구 큰우물로"}]}}}],"daysSupply":{"value":3,"unit":"일","system":"http://unitsofmeasure.org","code":"d"},"whenPrepared":"2024-08-06","dosageInstruction":[{"text":"20mL/포","timing":{"repeat":{"extension":[{"url":"https://simplifier.net/myhealthway/StructureDefinition/TimingforPublicMedicationDispense","valueString":"3"}],"frequency":3,"period":1,"periodUnit":"d"}},"doseAndRate":[{"doseQuantity":{"value":1.0}}]}]}},{"resource":{"resourceType":"MedicationDispense","id":"16000021","meta":{"profile":["https://simplifier.net/myhealthway/StructureDefinition/PublicMedicationDispense"]},"identifier":[{"system":"리소스식별자(미정)","value":"8090fb5f-4507-41d9-ae44-58129449f097"}],"contained":[{"resourceType":"Organization","id":"16200021","identifier":[{"system":"리소스식별체계(미정)","value":"5de79de7-3c1c-4ffd-a34f-fb94369dc9a2"}],"type":[{"coding":[{"system":"미정","code":"미정","display":"약국"}],"text":"약국"}],"name":"마포온누리약국","address":[{"text":"서울특별시 마포구 큰우물로"}]}],"status":"completed","medicationReference":{"reference":"Medication/16100021","resource":{"resourceType":"Medication","id":"16100021","meta":{"profile":["https://simplifier.net/myhealthway/StructureDefinition/PublicMedication"]},"identifier":[{"system":"리소스식별자(미정)","value":"medication1"}],"contained":[{"resourceType":"Substance","id":"163000001","identifier":[{"system":"리소스식별자(미정)","value":"acetaminophen(encapsulated)"}]}],"code":{"coding":[{"system":"https://biz.kpis.or.kr/CodeSystem/kdcode","code":"643501510","display":"써스펜8시간이알서방정650밀리그램(아세트아미노펜)_(0.65g/1정)"}],"text":"써스펜8시간이알서방정650밀리그램(아세트아미노펜)_(0.65g/1정)"},"ingredient":[{"itemReference":{"reference":"Substance/163000001","resource":{"resourceType":"Substance","id":"163000001","identifier":[{"system":"리소스식별자(미정)","value":"acetaminophen(encapsulated)"}],"code":{"coding":[{"system":"https://www.hira.or.kr","code":"101430ATR","display":"acetaminophen(encapsulated)"}]}}}}]}},"subject":{"reference":"Patient/10000000","resource":{"resourceType":"Patient","id":"10000000","meta":{"profile":["https://simplifier.net/myhealthway/StructureDefinition/PublicPatient"]},"identifier":[{"type":{"coding":[{"system":"http://myhealthway.go.kr(가칭)","code":"MHID"}]},"system":"미정","value":"10237464"},{"type":{"coding":[{"system":"http://terminology.hl7.org/CodeSystem/v2-0203","code":"NNKOR"}]},"system":"http://mois.go.kr/rnn","value":"9206272******"}],"name":[{"text":"정한나"}]}},"performer":[{"actor":{"reference":"Organization/16200021","resource":{"resourceType":"Organization","id":"16200021","identifier":[{"system":"리소스식별체계(미정)","value":"5de79de7-3c1c-4ffd-a34f-fb94369dc9a2"}],"type":[{"coding":[{"system":"미정","code":"미정","display":"약국"}],"text":"약국"}],"name":"마포온누리약국","address":[{"text":"서울특별시 마포구 큰우물로"}]}}}],"daysSupply":{"value":3,"unit":"일","system":"http://unitsofmeasure.org","code":"d"},"whenPrepared":"2024-08-06","dosageInstruction":[{"text":"1정","timing":{"repeat":{"extension":[{"url":"https://simplifier.net/myhealthway/StructureDefinition/TimingforPublicMedicationDispense","valueString":"3"}],"frequency":3,"period":1,"periodUnit":"d"}},"doseAndRate":[{"doseQuantity":{"value":1.0}}]}]}},{"resource":{"resourceType":"MedicationDispense","id":"16000022","meta":{"profile":["https://simplifier.net/myhealthway/StructureDefinition/PublicMedicationDispense"]},"identifier":[{"system":"리소스식별자(미정)","value":"4a319e04-610d-4e50-b8e7-3521f898d0bf"}],"contained":[{"resourceType":"Organization","id":"16200022","identifier":[{"system":"리소스식별체계(미정)","value":"6134579c-286c-4a96-94d6-39a9d1569362"}],"type":[{"coding":[{"system":"미정","code":"미정","display":"약국"}],"text":"약국"}],"name":"마포온누리약국","address":[{"text":"서울특별시 마포구 큰우물로"}]}],"status":"completed","medicationReference":{"reference":"Medication/16100022","resource":{"resourceType":"Medication","id":"16100022","meta":{"profile":["https://simplifier.net/myhealthway/StructureDefinition/PublicMedication"]},"identifier":[{"system":"리소스식별자(미정)","value":"medication1"}],"contained":[{"resourceType":"Substance","id":"163000001","identifier":[{"system":"리소스식별자(미정)","value":"famotidine"}]}],"code":{"coding":[{"system":"https://biz.kpis.or.kr/CodeSystem/kdcode","code":"644102110","display":"베스티딘정20밀리그램(파모티딘)_(20mg/1정)"}],"text":"베스티딘정20밀리그램(파모티딘)_(20mg/1정)"},"ingredient":[{"itemReference":{"reference":"Substance/163000001","resource":{"resourceType":"Substance","id":"163000001","identifier":[{"system":"리소스식별자(미정)","value":"famotidine"}],"code":{"coding":[{"system":"https://www.hira.or.kr","code":"157302ATB","display":"famotidine"}]}}}}]}},"subject":{"reference":"Patient/10000000","resource":{"resourceType":"Patient","id":"10000000","meta":{"profile":["https://simplifier.net/myhealthway/StructureDefinition/PublicPatient"]},"identifier":[{"type":{"coding":[{"system":"http://myhealthway.go.kr(가칭)","code":"MHID"}]},"system":"미정","value":"10237464"},{"type":{"coding":[{"system":"http://terminology.hl7.org/CodeSystem/v2-0203","code":"NNKOR"}]},"system":"http://mois.go.kr/rnn","value":"9206272******"}],"name":[{"text":"정한나"}]}},"performer":[{"actor":{"reference":"Organization/16200022","resource":{"resourceType":"Organization","id":"16200022","identifier":[{"system":"리소스식별체계(미정)","value":"6134579c-286c-4a96-94d6-39a9d1569362"}],"type":[{"coding":[{"system":"미정","code":"미정","display":"약국"}],"text":"약국"}],"name":"마포온누리약국","address":[{"text":"서울특별시 마포구 큰우물로"}]}}}],"daysSupply":{"value":3,"unit":"일","system":"http://unitsofmeasure.org","code":"d"},"whenPrepared":"2024-08-06","dosageInstruction":[{"text":"1정","timing":{"repeat":{"extension":[{"url":"https://simplifier.net/myhealthway/StructureDefinition/TimingforPublicMedicationDispense","valueString":"2"}],"frequency":2,"period":1,"periodUnit":"d"}},"doseAndRate":[{"doseQuantity":{"value":1.0}}]}]}},{"resource":{"resourceType":"MedicationDispense","id":"16000023","meta":{"profile":["https://simplifier.net/myhealthway/StructureDefinition/PublicMedicationDispense"]},"identifier":[{"system":"리소스식별자(미정)","value":"cee1e1ff-d6f5-4ea3-8711-6aa741b4cc8d"}],"contained":[{"resourceType":"Organization","id":"16200023","identifier":[{"system":"리소스식별체계(미정)","value":"20608d4a-de25-4a48-a7e8-0acb4e9edfb6"}],"type":[{"coding":[{"system":"미정","code":"미정","display":"약국"}],"text":"약국"}],"name":"마포온누리약국","address":[{"text":"서울특별시 마포구 큰우물로"}]}],"status":"completed","medicationReference":{"reference":"Medication/16100023","resource":{"resourceType":"Medication","id":"16100023","meta":{"profile":["https://simplifier.net/myhealthway/StructureDefinition/PublicMedication"]},"identifier":[{"system":"리소스식별자(미정)","value":"medication1"}],"contained":[{"resourceType":"Substance","id":"163000001","identifier":[{"system":"리소스식별자(미정)","value":"saccharomyces boulardii"}]}],"code":{"coding":[{"system":"https://biz.kpis.or.kr/CodeSystem/kdcode","code":"646802540","display":"비오플250캡슐(사카로마이세스보울라르디균)_(0.2825g/1캡슐)"}],"text":"비오플250캡슐(사카로마이세스보울라르디균)_(0.2825g/1캡슐)"},"ingredient":[{"itemReference":{"reference":"Substance/163000001","resource":{"resourceType":"Substance","id":"163000001","identifier":[{"system":"리소스식별자(미정)","value":"saccharomyces boulardii"}],"code":{"coding":[{"system":"https://www.hira.or.kr","code":"225402ACH","display":"saccharomyces boulardii"}]}}}}]}},"subject":{"reference":"Patient/10000000","resource":{"resourceType":"Patient","id":"10000000","meta":{"profile":["https://simplifier.net/myhealthway/StructureDefinition/PublicPatient"]},"identifier":[{"type":{"coding":[{"system":"http://myhealthway.go.kr(가칭)","code":"MHID"}]},"system":"미정","value":"10237464"},{"type":{"coding":[{"system":"http://terminology.hl7.org/CodeSystem/v2-0203","code":"NNKOR"}]},"system":"http://mois.go.kr/rnn","value":"9206272******"}],"name":[{"text":"정한나"}]}},"performer":[{"actor":{"reference":"Organization/16200023","resource":{"resourceType":"Organization","id":"16200023","identifier":[{"system":"리소스식별체계(미정)","value":"20608d4a-de25-4a48-a7e8-0acb4e9edfb6"}],"type":[{"coding":[{"system":"미정","code":"미정","display":"약국"}],"text":"약국"}],"name":"마포온누리약국","address":[{"text":"서울특별시 마포구 큰우물로"}]}}}],"daysSupply":{"value":3,"unit":"일","system":"http://unitsofmeasure.org","code":"d"},"whenPrepared":"2024-08-06","dosageInstruction":[{"text":"1캡슐","timing":{"repeat":{"extension":[{"url":"https://simplifier.net/myhealthway/StructureDefinition/TimingforPublicMedicationDispense","valueString":"3"}],"frequency":3,"period":1,"periodUnit":"d"}},"doseAndRate":[{"doseQuantity":{"value":1.0}}]}]}},{"resource":{"resourceType":"MedicationDispense","id":"16000024","meta":{"profile":["https://simplifier.net/myhealthway/StructureDefinition/PublicMedicationDispense"]},"identifier":[{"system":"리소스식별자(미정)","value":"17eb487a-76d6-410f-9a67-4c7b7eb88b62"}],"contained":[{"resourceType":"Organization","id":"16200024","identifier":[{"system":"리소스식별체계(미정)","value":"210e3c08-855e-4b57-bc28-373d78e4fed9"}],"type":[{"coding":[{"system":"미정","code":"미정","display":"약국"}],"text":"약국"}],"name":"마포온누리약국","address":[{"text":"서울특별시 마포구 큰우물로"}]}],"status":"completed","medicationReference":{"reference":"Medication/16100024","resource":{"resourceType":"Medication","id":"16100024","meta":{"profile":["https://simplifier.net/myhealthway/StructureDefinition/PublicMedication"]},"identifier":[{"system":"리소스식별자(미정)","value":"medication1"}],"contained":[{"resourceType":"Substance","id":"163000001","identifier":[{"system":"리소스식별자(미정)","value":"loperamide hydrochloride"}]}],"code":{"coding":[{"system":"https://biz.kpis.or.kr/CodeSystem/kdcode","code":"649400510","display":"로프민캡슐(로페라미드염산염)_(2mg/1캡슐)"}],"text":"로프민캡슐(로페라미드염산염)_(2mg/1캡슐)"},"ingredient":[{"itemReference":{"reference":"Substance/163000001","resource":{"resourceType":"Substance","id":"163000001","identifier":[{"system":"리소스식별자(미정)","value":"loperamide hydrochloride"}],"code":{"coding":[{"system":"https://www.hira.or.kr","code":"185102ACH","display":"loperamide hydrochloride"}]}}}}]}},"subject":{"reference":"Patient/10000000","resource":{"resourceType":"Patient","id":"10000000","meta":{"profile":["https://simplifier.net/myhealthway/StructureDefinition/PublicPatient"]},"identifier":[{"type":{"coding":[{"system":"http://myhealthway.go.kr(가칭)","code":"MHID"}]},"system":"미정","value":"10237464"},{"type":{"coding":[{"system":"http://terminology.hl7.org/CodeSystem/v2-0203","code":"NNKOR"}]},"system":"http://mois.go.kr/rnn","value":"9206272******"}],"name":[{"text":"정한나"}]}},"performer":[{"actor":{"reference":"Organization/16200024","resource":{"resourceType":"Organization","id":"16200024","identifier":[{"system":"리소스식별체계(미정)","value":"210e3c08-855e-4b57-bc28-373d78e4fed9"}],"type":[{"coding":[{"system":"미정","code":"미정","display":"약국"}],"text":"약국"}],"name":"마포온누리약국","address":[{"text":"서울특별시 마포구 큰우물로"}]}}}],"daysSupply":{"value":3,"unit":"일","system":"http://unitsofmeasure.org","code":"d"},"whenPrepared":"2024-08-06","dosageInstruction":[{"text":"1캡슐","timing":{"repeat":{"extension":[{"url":"https://simplifier.net/myhealthway/StructureDefinition/TimingforPublicMedicationDispense","valueString":"3"}],"frequency":3,"period":1,"periodUnit":"d"}},"doseAndRate":[{"doseQuantity":{"value":1.0}}]}]}},{"resource":{"resourceType":"MedicationDispense","id":"16000025","meta":{"profile":["https://simplifier.net/myhealthway/StructureDefinition/PublicMedicationDispense"]},"identifier":[{"system":"리소스식별자(미정)","value":"29a12220-1bee-45e5-b788-636a7fb56726"}],"contained":[{"resourceType":"Organization","id":"16200025","identifier":[{"system":"리소스식별체계(미정)","value":"71c414e3-2760-4ee7-b571-47163b81dd6d"}],"type":[{"coding":[{"system":"미정","code":"미정","display":"약국"}],"text":"약국"}],"name":"포도약국","address":[{"text":"서울특별시 마포구 마포대로"}]}],"status":"completed","medicationReference":{"reference":"Medication/16100025","resource":{"resourceType":"Medication","id":"16100025","meta":{"profile":["https://simplifier.net/myhealthway/StructureDefinition/PublicMedication"]},"identifier":[{"system":"리소스식별자(미정)","value":"medication1"}],"contained":[{"resourceType":"Substance","id":"163000001","identifier":[{"system":"리소스식별자(미정)","value":"pseudoephedrine hydrochloride"}]}],"code":{"coding":[{"system":"https://biz.kpis.or.kr/CodeSystem/kdcode","code":"643900710","display":"슈다페드정(슈도에페드린염산염)_(60mg/1정)"}],"text":"슈다페드정(슈도에페드린염산염)_(60mg/1정)"},"ingredient":[{"itemReference":{"reference":"Substance/163000001","resource":{"resourceType":"Substance","id":"163000001","identifier":[{"system":"리소스식별자(미정)","value":"pseudoephedrine hydrochloride"}],"code":{"coding":[{"system":"https://www.hira.or.kr","code":"220902ATB","display":"pseudoephedrine hydrochloride"}]}}}}]}},"subject":{"reference":"Patient/10000000","resource":{"resourceType":"Patient","id":"10000000","meta":{"profile":["https://simplifier.net/myhealthway/StructureDefinition/PublicPatient"]},"identifier":[{"type":{"coding":[{"system":"http://myhealthway.go.kr(가칭)","code":"MHID"}]},"system":"미정","value":"10237464"},{"type":{"coding":[{"system":"http://terminology.hl7.org/CodeSystem/v2-0203","code":"NNKOR"}]},"system":"http://mois.go.kr/rnn","value":"9206272******"}],"name":[{"text":"정한나"}]}},"performer":[{"actor":{"reference":"Organization/16200025","resource":{"resourceType":"Organization","id":"16200025","identifier":[{"system":"리소스식별체계(미정)","value":"71c414e3-2760-4ee7-b571-47163b81dd6d"}],"type":[{"coding":[{"system":"미정","code":"미정","display":"약국"}],"text":"약국"}],"name":"포도약국","address":[{"text":"서울특별시 마포구 마포대로"}]}}}],"daysSupply":{"value":3,"unit":"일","system":"http://unitsofmeasure.org","code":"d"},"whenPrepared":"2024-07-22","dosageInstruction":[{"text":"1정","timing":{"repeat":{"extension":[{"url":"https://simplifier.net/myhealthway/StructureDefinition/TimingforPublicMedicationDispense","valueString":"2"}],"frequency":2,"period":1,"periodUnit":"d"}},"doseAndRate":[{"doseQuantity":{"value":0.5}}]}]}},{"resource":{"resourceType":"MedicationDispense","id":"16000026","meta":{"profile":["https://simplifier.net/myhealthway/StructureDefinition/PublicMedicationDispense"]},"identifier":[{"system":"리소스식별자(미정)","value":"be8a0339-dee5-4bc8-a306-9e16d7e8e367"}],"contained":[{"resourceType":"Organization","id":"16200026","identifier":[{"system":"리소스식별체계(미정)","value":"93e7b1c7-e539-4061-a758-1994dc9a0863"}],"type":[{"coding":[{"system":"미정","code":"미정","display":"약국"}],"text":"약국"}],"name":"포도약국","address":[{"text":"서울특별시 마포구 마포대로"}]}],"status":"completed","medicationReference":{"reference":"Medication/16100026","resource":{"resourceType":"Medication","id":"16100026","meta":{"profile":["https://simplifier.net/myhealthway/StructureDefinition/PublicMedication"]},"identifier":[{"system":"리소스식별자(미정)","value":"medication1"}],"contained":[{"resourceType":"Substance","id":"163000001","identifier":[{"system":"리소스식별자(미정)","value":"mosapride citrate hydrate (as mosapride)"}]}],"code":{"coding":[{"system":"https://biz.kpis.or.kr/CodeSystem/kdcode","code":"647804090","display":"모메릭정5밀리그램(모사프리드시트르산염수화물)_(5.29mg/1정)"}],"text":"모메릭정5밀리그램(모사프리드시트르산염수화물)_(5.29mg/1정)"},"ingredient":[{"itemReference":{"reference":"Substance/163000001","resource":{"resourceType":"Substance","id":"163000001","identifier":[{"system":"리소스식별자(미정)","value":"mosapride citrate hydrate (as mosapride)"}],"code":{"coding":[{"system":"https://www.hira.or.kr","code":"421001ATB","display":"mosapride citrate hydrate (as mosapride)"}]}}}}]}},"subject":{"reference":"Patient/10000000","resource":{"resourceType":"Patient","id":"10000000","meta":{"profile":["https://simplifier.net/myhealthway/StructureDefinition/PublicPatient"]},"identifier":[{"type":{"coding":[{"system":"http://myhealthway.go.kr(가칭)","code":"MHID"}]},"system":"미정","value":"10237464"},{"type":{"coding":[{"system":"http://terminology.hl7.org/CodeSystem/v2-0203","code":"NNKOR"}]},"system":"http://mois.go.kr/rnn","value":"9206272******"}],"name":[{"text":"정한나"}]}},"performer":[{"actor":{"reference":"Organization/16200026","resource":{"resourceType":"Organization","id":"16200026","identifier":[{"system":"리소스식별체계(미정)","value":"93e7b1c7-e539-4061-a758-1994dc9a0863"}],"type":[{"coding":[{"system":"미정","code":"미정","display":"약국"}],"text":"약국"}],"name":"포도약국","address":[{"text":"서울특별시 마포구 마포대로"}]}}}],"daysSupply":{"value":3,"unit":"일","system":"http://unitsofmeasure.org","code":"d"},"whenPrepared":"2024-07-22","dosageInstruction":[{"text":"1정","timing":{"repeat":{"extension":[{"url":"https://simplifier.net/myhealthway/StructureDefinition/TimingforPublicMedicationDispense","valueString":"3"}],"frequency":3,"period":1,"periodUnit":"d"}},"doseAndRate":[{"doseQuantity":{"value":1.0}}]}]}},{"resource":{"resourceType":"MedicationDispense","id":"16000027","meta":{"profile":["https://simplifier.net/myhealthway/StructureDefinition/PublicMedicationDispense"]},"identifier":[{"system":"리소스식별자(미정)","value":"15a10ab7-2a9d-412f-8585-e6dc25e47b81"}],"contained":[{"resourceType":"Organization","id":"16200027","identifier":[{"system":"리소스식별체계(미정)","value":"67d7d870-3b23-458e-9bee-e6f8d82409a8"}],"type":[{"coding":[{"system":"미정","code":"미정","display":"약국"}],"text":"약국"}],"name":"포도약국","address":[{"text":"서울특별시 마포구 마포대로"}]}],"status":"completed","medicationReference":{"reference":"Medication/16100027","resource":{"resourceType":"Medication","id":"16100027","meta":{"profile":["https://simplifier.net/myhealthway/StructureDefinition/PublicMedication"]},"identifier":[{"system":"리소스식별자(미정)","value":"medication1"}],"contained":[{"resourceType":"Substance","id":"163000001","identifier":[{"system":"리소스식별자(미정)","value":"erdosteine"}]}],"code":{"coding":[{"system":"https://biz.kpis.or.kr/CodeSystem/kdcode","code":"647804400","display":"브론펙트캡슐(에르도스테인)_(0.3g/1캡슐)"}],"text":"브론펙트캡슐(에르도스테인)_(0.3g/1캡슐)"},"ingredient":[{"itemReference":{"reference":"Substance/163000001","resource":{"resourceType":"Substance","id":"163000001","identifier":[{"system":"리소스식별자(미정)","value":"erdosteine"}],"code":{"coding":[{"system":"https://www.hira.or.kr","code":"153101ACH","display":"erdosteine"}]}}}}]}},"subject":{"reference":"Patient/10000000","resource":{"resourceType":"Patient","id":"10000000","meta":{"profile":["https://simplifier.net/myhealthway/StructureDefinition/PublicPatient"]},"identifier":[{"type":{"coding":[{"system":"http://myhealthway.go.kr(가칭)","code":"MHID"}]},"system":"미정","value":"10237464"},{"type":{"coding":[{"system":"http://terminology.hl7.org/CodeSystem/v2-0203","code":"NNKOR"}]},"system":"http://mois.go.kr/rnn","value":"9206272******"}],"name":[{"text":"정한나"}]}},"performer":[{"actor":{"reference":"Organization/16200027","resource":{"resourceType":"Organization","id":"16200027","identifier":[{"system":"리소스식별체계(미정)","value":"67d7d870-3b23-458e-9bee-e6f8d82409a8"}],"type":[{"coding":[{"system":"미정","code":"미정","display":"약국"}],"text":"약국"}],"name":"포도약국","address":[{"text":"서울특별시 마포구 마포대로"}]}}}],"daysSupply":{"value":3,"unit":"일","system":"http://unitsofmeasure.org","code":"d"},"whenPrepared":"2024-07-22","dosageInstruction":[{"text":"1캡슐","timing":{"repeat":{"extension":[{"url":"https://simplifier.net/myhealthway/StructureDefinition/TimingforPublicMedicationDispense","valueString":"3"}],"frequency":3,"period":1,"periodUnit":"d"}},"doseAndRate":[{"doseQuantity":{"value":1.0}}]}]}},{"resource":{"resourceType":"MedicationDispense","id":"16000028","meta":{"profile":["https://simplifier.net/myhealthway/StructureDefinition/PublicMedicationDispense"]},"identifier":[{"system":"리소스식별자(미정)","value":"25cd9f38-3889-4988-8a74-c8bc43761ef2"}],"contained":[{"resourceType":"Organization","id":"16200028","identifier":[{"system":"리소스식별체계(미정)","value":"e304bd1e-ffca-4268-9633-dbf99aebb1b8"}],"type":[{"coding":[{"system":"미정","code":"미정","display":"약국"}],"text":"약국"}],"name":"포도약국","address":[{"text":"서울특별시 마포구 마포대로"}]}],"status":"completed","medicationReference":{"reference":"Medication/16100028","resource":{"resourceType":"Medication","id":"16100028","meta":{"profile":["https://simplifier.net/myhealthway/StructureDefinition/PublicMedication"]},"identifier":[{"system":"리소스식별자(미정)","value":"medication1"}],"contained":[{"resourceType":"Substance","id":"163000001","identifier":[{"system":"리소스식별자(미정)","value":"levocloperastine fendizoate (as cloperastine hydrochloride)"}]}],"code":{"coding":[{"system":"https://biz.kpis.or.kr/CodeSystem/kdcode","code":"671803511","display":"프리비투스현탁액(레보클로페라스틴펜디조산염)_(56.64mg/8mL)"}],"text":"프리비투스현탁액(레보클로페라스틴펜디조산염)_(56.64mg/8mL)"},"ingredient":[{"itemReference":{"reference":"Substance/163000001","resource":{"resourceType":"Substance","id":"163000001","identifier":[{"system":"리소스식별자(미정)","value":"levocloperastine fendizoate (as cloperastine hydrochloride)"}],"code":{"coding":[{"system":"https://www.hira.or.kr","code":"429030ASS","display":"levocloperastine fendizoate (as cloperastine hydrochloride)"}]}}}}]}},"subject":{"reference":"Patient/10000000","resource":{"resourceType":"Patient","id":"10000000","meta":{"profile":["https://simplifier.net/myhealthway/StructureDefinition/PublicPatient"]},"identifier":[{"type":{"coding":[{"system":"http://myhealthway.go.kr(가칭)","code":"MHID"}]},"system":"미정","value":"10237464"},{"type":{"coding":[{"system":"http://terminology.hl7.org/CodeSystem/v2-0203","code":"NNKOR"}]},"system":"http://mois.go.kr/rnn","value":"9206272******"}],"name":[{"text":"정한나"}]}},"performer":[{"actor":{"reference":"Organization/16200028","resource":{"resourceType":"Organization","id":"16200028","identifier":[{"system":"리소스식별체계(미정)","value":"e304bd1e-ffca-4268-9633-dbf99aebb1b8"}],"type":[{"coding":[{"system":"미정","code":"미정","display":"약국"}],"text":"약국"}],"name":"포도약국","address":[{"text":"서울특별시 마포구 마포대로"}]}}}],"daysSupply":{"value":3,"unit":"일","system":"http://unitsofmeasure.org","code":"d"},"whenPrepared":"2024-07-22","dosageInstruction":[{"text":"8mL/포","timing":{"repeat":{"extension":[{"url":"https://simplifier.net/myhealthway/StructureDefinition/TimingforPublicMedicationDispense","valueString":"3"}],"frequency":3,"period":1,"periodUnit":"d"}},"doseAndRate":[{"doseQuantity":{"value":1.0}}]}]}},{"resource":{"resourceType":"MedicationDispense","id":"16000029","meta":{"profile":["https://simplifier.net/myhealthway/StructureDefinition/PublicMedicationDispense"]},"identifier":[{"system":"리소스식별자(미정)","value":"e72b72d9-a188-4c41-80e5-7601c5d3db2a"}],"contained":[{"resourceType":"Organization","id":"16200029","identifier":[{"system":"리소스식별체계(미정)","value":"8450bebc-2e3f-4eb4-98ac-7c600a07b740"}],"type":[{"coding":[{"system":"미정","code":"미정","display":"약국"}],"text":"약국"}],"name":"포도약국","address":[{"text":"서울특별시 마포구 마포대로"}]}],"status":"completed","medicationReference":{"reference":"Medication/16100029","resource":{"resourceType":"Medication","id":"16100029","meta":{"profile":["https://simplifier.net/myhealthway/StructureDefinition/PublicMedication"]},"identifier":[{"system":"리소스식별자(미정)","value":"medication1"}],"contained":[{"resourceType":"Substance","id":"163000001","identifier":[{"system":"리소스식별자(미정)","value":"bepotastine besilate"}]}],"code":{"coding":[{"system":"https://biz.kpis.or.kr/CodeSystem/kdcode","code":"671806480","display":"베포스타비정(베포타스틴베실산염)_(10mg/1정)"}],"text":"베포스타비정(베포타스틴베실산염)_(10mg/1정)"},"ingredient":[{"itemReference":{"reference":"Substance/163000001","resource":{"resourceType":"Substance","id":"163000001","identifier":[{"system":"리소스식별자(미정)","value":"bepotastine besilate"}],"code":{"coding":[{"system":"https://www.hira.or.kr","code":"453902ATB","display":"bepotastine besilate"}]}}}}]}},"subject":{"reference":"Patient/10000000","resource":{"resourceType":"Patient","id":"10000000","meta":{"profile":["https://simplifier.net/myhealthway/StructureDefinition/PublicPatient"]},"identifier":[{"type":{"coding":[{"system":"http://myhealthway.go.kr(가칭)","code":"MHID"}]},"system":"미정","value":"10237464"},{"type":{"coding":[{"system":"http://terminology.hl7.org/CodeSystem/v2-0203","code":"NNKOR"}]},"system":"http://mois.go.kr/rnn","value":"9206272******"}],"name":[{"text":"정한나"}]}},"performer":[{"actor":{"reference":"Organization/16200029","resource":{"resourceType":"Organization","id":"16200029","identifier":[{"system":"리소스식별체계(미정)","value":"8450bebc-2e3f-4eb4-98ac-7c600a07b740"}],"type":[{"coding":[{"system":"미정","code":"미정","display":"약국"}],"text":"약국"}],"name":"포도약국","address":[{"text":"서울특별시 마포구 마포대로"}]}}}],"daysSupply":{"value":3,"unit":"일","system":"http://unitsofmeasure.org","code":"d"},"whenPrepared":"2024-07-22","dosageInstruction":[{"text":"1정","timing":{"repeat":{"extension":[{"url":"https://simplifier.net/myhealthway/StructureDefinition/TimingforPublicMedicationDispense","valueString":"2"}],"frequency":2,"period":1,"periodUnit":"d"}},"doseAndRate":[{"doseQuantity":{"value":1.0}}]}]}},{"resource":{"resourceType":"Medication","id":"16100001","meta":{"profile":["https://simplifier.net/myhealthway/StructureDefinition/PublicMedication"]},"identifier":[{"system":"리소스식별자(미정)","value":"medication1"}],"contained":[{"resourceType":"Substance","id":"163000001","identifier":[{"system":"리소스식별자(미정)","value":"acetaminophen(encapsulated)"}],"code":{"coding":[{"system":"https://www.hira.or.kr","code":"101430ATR","display":"acetaminophen(encapsulated)"}]}}],"code":{"coding":[{"system":"https://biz.kpis.or.kr/CodeSystem/kdcode","code":"642202200","display":"타세놀8시간이알서방정(아세트아미노펜)_(0.65g/1정)"}],"text":"타세놀8시간이알서방정(아세트아미노펜)_(0.65g/1정)"},"ingredient":[{"itemReference":{"reference":"Substance/163000001","resource":{"resourceType":"Substance","id":"163000001","identifier":[{"system":"리소스식별자(미정)","value":"acetaminophen(encapsulated)"}],"code":{"coding":[{"system":"https://www.hira.or.kr","code":"101430ATR","display":"acetaminophen(encapsulated)"}]}}}}]}},{"resource":{"resourceType":"Medication","id":"16100002","meta":{"profile":["https://simplifier.net/myhealthway/StructureDefinition/PublicMedication"]},"identifier":[{"system":"리소스식별자(미정)","value":"medication1"}],"contained":[{"resourceType":"Substance","id":"163000001","identifier":[{"system":"리소스식별자(미정)","value":"methylprednisolone"}],"code":{"coding":[{"system":"https://www.hira.or.kr","code":"193302ATB","display":"methylprednisolone"}]}}],"code":{"coding":[{"system":"https://biz.kpis.or.kr/CodeSystem/kdcode","code":"644802910","display":"프레나정(메틸프레드니솔론)_(4mg/1정)"}],"text":"프레나정(메틸프레드니솔론)_(4mg/1정)"},"ingredient":[{"itemReference":{"reference":"Substance/163000001","resource":{"resourceType":"Substance","id":"163000001","identifier":[{"system":"리소스식별자(미정)","value":"methylprednisolone"}],"code":{"coding":[{"system":"https://www.hira.or.kr","code":"193302ATB","display":"methylprednisolone"}]}}}}]}},{"resource":{"resourceType":"Medication","id":"16100003","meta":{"profile":["https://simplifier.net/myhealthway/StructureDefinition/PublicMedication"]},"identifier":[{"system":"리소스식별자(미정)","value":"medication1"}],"contained":[{"resourceType":"Substance","id":"163000001","identifier":[{"system":"리소스식별자(미정)","value":"rebamipide"}],"code":{"coding":[{"system":"https://www.hira.or.kr","code":"222901ATB","display":"rebamipide"}]}}],"code":{"coding":[{"system":"https://biz.kpis.or.kr/CodeSystem/kdcode","code":"649502160","display":"유니레바정(레바미피드)(수출명: 유니레다정)_(0.1g/1정)"}],"text":"유니레바정(레바미피드)(수출명: 유니레다정)_(0.1g/1정)"},"ingredient":[{"itemReference":{"reference":"Substance/163000001","resource":{"resourceType":"Substance","id":"163000001","identifier":[{"system":"리소스식별자(미정)","value":"rebamipide"}],"code":{"coding":[{"system":"https://www.hira.or.kr","code":"222901ATB","display":"rebamipide"}]}}}}]}},{"resource":{"resourceType":"Medication","id":"16100004","meta":{"profile":["https://simplifier.net/myhealthway/StructureDefinition/PublicMedication"]},"identifier":[{"system":"리소스식별자(미정)","value":"medication1"}],"contained":[{"resourceType":"Substance","id":"163000001","identifier":[{"system":"리소스식별자(미정)","value":"levocetirizine dihydrochloride"}],"code":{"coding":[{"system":"https://www.hira.or.kr","code":"463601ATB","display":"levocetirizine dihydrochloride"}]}}],"code":{"coding":[{"system":"https://biz.kpis.or.kr/CodeSystem/kdcode","code":"651600960","display":"렙티진정(레보세티리진 염산염)_(5mg/1정)"}],"text":"렙티진정(레보세티리진 염산염)_(5mg/1정)"},"ingredient":[{"itemReference":{"reference":"Substance/163000001","resource":{"resourceType":"Substance","id":"163000001","identifier":[{"system":"리소스식별자(미정)","value":"levocetirizine dihydrochloride"}],"code":{"coding":[{"system":"https://www.hira.or.kr","code":"463601ATB","display":"levocetirizine dihydrochloride"}]}}}}]}},{"resource":{"resourceType":"Medication","id":"16100005","meta":{"profile":["https://simplifier.net/myhealthway/StructureDefinition/PublicMedication"]},"identifier":[{"system":"리소스식별자(미정)","value":"medication1"}],"contained":[{"resourceType":"Substance","id":"163000001","identifier":[{"system":"리소스식별자(미정)","value":"dexibuprofen"}],"code":{"coding":[{"system":"https://www.hira.or.kr","code":"142303ATB","display":"dexibuprofen"}]}}],"code":{"coding":[{"system":"https://biz.kpis.or.kr/CodeSystem/kdcode","code":"670100100","display":"덱시부정400mg(덱시부프로펜디.씨)_(0.4g/1정)"}],"text":"덱시부정400mg(덱시부프로펜디.씨)_(0.4g/1정)"},"ingredient":[{"itemReference":{"reference":"Substance/163000001","resource":{"resourceType":"Substance","id":"163000001","identifier":[{"system":"리소스식별자(미정)","value":"dexibuprofen"}],"code":{"coding":[{"system":"https://www.hira.or.kr","code":"142303ATB","display":"dexibuprofen"}]}}}}]}},{"resource":{"resourceType":"Medication","id":"16100006","meta":{"profile":["https://simplifier.net/myhealthway/StructureDefinition/PublicMedication"]},"identifier":[{"system":"리소스식별자(미정)","value":"medication1"}],"contained":[{"resourceType":"Substance","id":"163000001","identifier":[{"system":"리소스식별자(미정)","value":"chlorpheniramine maleate"}],"code":{"coding":[{"system":"https://www.hira.or.kr","code":"131801ATB","display":"chlorpheniramine maleate"}]}}],"code":{"coding":[{"system":"https://biz.kpis.or.kr/CodeSystem/kdcode","code":"642102570","display":"페니라민정(클로르페니라민말레산염)_(2mg/1정)"}],"text":"페니라민정(클로르페니라민말레산염)_(2mg/1정)"},"ingredient":[{"itemReference":{"reference":"Substance/163000001","resource":{"resourceType":"Substance","id":"163000001","identifier":[{"system":"리소스식별자(미정)","value":"chlorpheniramine maleate"}],"code":{"coding":[{"system":"https://www.hira.or.kr","code":"131801ATB","display":"chlorpheniramine maleate"}]}}}}]}},{"resource":{"resourceType":"Medication","id":"16100007","meta":{"profile":["https://simplifier.net/myhealthway/StructureDefinition/PublicMedication"]},"identifier":[{"system":"리소스식별자(미정)","value":"medication1"}],"contained":[{"resourceType":"Substance","id":"163000001","identifier":[{"system":"리소스식별자(미정)","value":"prednisolone"}],"code":{"coding":[{"system":"https://www.hira.or.kr","code":"217001ATB","display":"prednisolone"}]}}],"code":{"coding":[{"system":"https://biz.kpis.or.kr/CodeSystem/kdcode","code":"642105020","display":"소론도정(프레드니솔론)_(5mg/1정)"}],"text":"소론도정(프레드니솔론)_(5mg/1정)"},"ingredient":[{"itemReference":{"reference":"Substance/163000001","resource":{"resourceType":"Substance","id":"163000001","identifier":[{"system":"리소스식별자(미정)","value":"prednisolone"}],"code":{"coding":[{"system":"https://www.hira.or.kr","code":"217001ATB","display":"prednisolone"}]}}}}]}},{"resource":{"resourceType":"Medication","id":"16100008","meta":{"profile":["https://simplifier.net/myhealthway/StructureDefinition/PublicMedication"]},"identifier":[{"system":"리소스식별자(미정)","value":"medication1"}],"contained":[{"resourceType":"Substance","id":"163000001","identifier":[{"system":"리소스식별자(미정)","value":"mosapride citrate hydrate (as mosapride)"}],"code":{"coding":[{"system":"https://www.hira.or.kr","code":"421001ATB","display":"mosapride citrate hydrate (as mosapride)"}]}}],"code":{"coding":[{"system":"https://biz.kpis.or.kr/CodeSystem/kdcode","code":"654000660","display":"아나모틴정(모사프리드시트르산염이수화물)_(5.29mg/1정)"}],"text":"아나모틴정(모사프리드시트르산염이수화물)_(5.29mg/1정)"},"ingredient":[{"itemReference":{"reference":"Substance/163000001","resource":{"resourceType":"Substance","id":"163000001","identifier":[{"system":"리소스식별자(미정)","value":"mosapride citrate hydrate (as mosapride)"}],"code":{"coding":[{"system":"https://www.hira.or.kr","code":"421001ATB","display":"mosapride citrate hydrate (as mosapride)"}]}}}}]}},{"resource":{"resourceType":"Medication","id":"16100009","meta":{"profile":["https://simplifier.net/myhealthway/StructureDefinition/PublicMedication"]},"identifier":[{"system":"리소스식별자(미정)","value":"medication1"}],"contained":[{"resourceType":"Substance","id":"163000001","identifier":[{"system":"리소스식별자(미정)","value":"levodropropizine"}],"code":{"coding":[{"system":"https://www.hira.or.kr","code":"183102ATB","display":"levodropropizine"}]}}],"code":{"coding":[{"system":"https://biz.kpis.or.kr/CodeSystem/kdcode","code":"654004230","display":"아나레보정(레보드로프로피진)_(60mg/1정)"}],"text":"아나레보정(레보드로프로피진)_(60mg/1정)"},"ingredient":[{"itemReference":{"reference":"Substance/163000001","resource":{"resourceType":"Substance","id":"163000001","identifier":[{"system":"리소스식별자(미정)","value":"levodropropizine"}],"code":{"coding":[{"system":"https://www.hira.or.kr","code":"183102ATB","display":"levodropropizine"}]}}}}]}},{"resource":{"resourceType":"Medication","id":"16100010","meta":{"profile":["https://simplifier.net/myhealthway/StructureDefinition/PublicMedication"]},"identifier":[{"system":"리소스식별자(미정)","value":"medication1"}],"contained":[{"resourceType":"Substance","id":"163000001","identifier":[{"system":"리소스식별자(미정)","value":"acetaminophen(encapsulated)"}],"code":{"coding":[{"system":"https://www.hira.or.kr","code":"101430ATR","display":"acetaminophen(encapsulated)"}]}}],"code":{"coding":[{"system":"https://biz.kpis.or.kr/CodeSystem/kdcode","code":"698003380","display":"아니스펜8시간이알서방정(아세트아미노펜)_(0.65g/1정)"}],"text":"아니스펜8시간이알서방정(아세트아미노펜)_(0.65g/1정)"},"ingredient":[{"itemReference":{"reference":"Substance/163000001","resource":{"resourceType":"Substance","id":"163000001","identifier":[{"system":"리소스식별자(미정)","value":"acetaminophen(encapsulated)"}],"code":{"coding":[{"system":"https://www.hira.or.kr","code":"101430ATR","display":"acetaminophen(encapsulated)"}]}}}}]}},{"resource":{"resourceType":"Medication","id":"16100011","meta":{"profile":["https://simplifier.net/myhealthway/StructureDefinition/PublicMedication"]},"identifier":[{"system":"리소스식별자(미정)","value":"medication1"}],"contained":[{"resourceType":"Substance","id":"163000001","identifier":[{"system":"리소스식별자(미정)","value":"cefuroxime axetil (as cefuroxime)"}],"code":{"coding":[{"system":"https://www.hira.or.kr","code":"128903ATB","display":"cefuroxime axetil (as cefuroxime)"}]}}],"code":{"coding":[{"system":"https://biz.kpis.or.kr/CodeSystem/kdcode","code":"643702060","display":"진세프정(세푸록심악세틸)(수출명:진세프틸정,제프렉소민정)_(0.30072g/1정)"}],"text":"진세프정(세푸록심악세틸)(수출명:진세프틸정,제프렉소민정)_(0.30072g/1정)"},"ingredient":[{"itemReference":{"reference":"Substance/163000001","resource":{"resourceType":"Substance","id":"163000001","identifier":[{"system":"리소스식별자(미정)","value":"cefuroxime axetil (as cefuroxime)"}],"code":{"coding":[{"system":"https://www.hira.or.kr","code":"128903ATB","display":"cefuroxime axetil (as cefuroxime)"}]}}}}]}},{"resource":{"resourceType":"Medication","id":"16100012","meta":{"profile":["https://simplifier.net/myhealthway/StructureDefinition/PublicMedication"]},"identifier":[{"system":"리소스식별자(미정)","value":"medication1"}],"contained":[{"resourceType":"Substance","id":"163000001","identifier":[{"system":"리소스식별자(미정)","value":"pseudoephedrine hydrochloride"}],"code":{"coding":[{"system":"https://www.hira.or.kr","code":"220902ATB","display":"pseudoephedrine hydrochloride"}]}}],"code":{"coding":[{"system":"https://biz.kpis.or.kr/CodeSystem/kdcode","code":"643900710","display":"슈다페드정(슈도에페드린염산염)_(60mg/1정)"}],"text":"슈다페드정(슈도에페드린염산염)_(60mg/1정)"},"ingredient":[{"itemReference":{"reference":"Substance/163000001","resource":{"resourceType":"Substance","id":"163000001","identifier":[{"system":"리소스식별자(미정)","value":"pseudoephedrine hydrochloride"}],"code":{"coding":[{"system":"https://www.hira.or.kr","code":"220902ATB","display":"pseudoephedrine hydrochloride"}]}}}}]}},{"resource":{"resourceType":"Medication","id":"16100013","meta":{"profile":["https://simplifier.net/myhealthway/StructureDefinition/PublicMedication"]},"identifier":[{"system":"리소스식별자(미정)","value":"medication1"}],"contained":[{"resourceType":"Substance","id":"163000001","identifier":[{"system":"리소스식별자(미정)","value":"mosapride citrate hydrate (as mosapride)"}],"code":{"coding":[{"system":"https://www.hira.or.kr","code":"421001ATB","display":"mosapride citrate hydrate (as mosapride)"}]}}],"code":{"coding":[{"system":"https://biz.kpis.or.kr/CodeSystem/kdcode","code":"647804090","display":"모메릭정5밀리그램(모사프리드시트르산염수화물)_(5.29mg/1정)"}],"text":"모메릭정5밀리그램(모사프리드시트르산염수화물)_(5.29mg/1정)"},"ingredient":[{"itemReference":{"reference":"Substance/163000001","resource":{"resourceType":"Substance","id":"163000001","identifier":[{"system":"리소스식별자(미정)","value":"mosapride citrate hydrate (as mosapride)"}],"code":{"coding":[{"system":"https://www.hira.or.kr","code":"421001ATB","display":"mosapride citrate hydrate (as mosapride)"}]}}}}]}},{"resource":{"resourceType":"Medication","id":"16100014","meta":{"profile":["https://simplifier.net/myhealthway/StructureDefinition/PublicMedication"]},"identifier":[{"system":"리소스식별자(미정)","value":"medication1"}],"contained":[{"resourceType":"Substance","id":"163000001","identifier":[{"system":"리소스식별자(미정)","value":"erdosteine"}],"code":{"coding":[{"system":"https://www.hira.or.kr","code":"153101ACH","display":"erdosteine"}]}}],"code":{"coding":[{"system":"https://biz.kpis.or.kr/CodeSystem/kdcode","code":"647804400","display":"브론펙트캡슐(에르도스테인)_(0.3g/1캡슐)"}],"text":"브론펙트캡슐(에르도스테인)_(0.3g/1캡슐)"},"ingredient":[{"itemReference":{"reference":"Substance/163000001","resource":{"resourceType":"Substance","id":"163000001","identifier":[{"system":"리소스식별자(미정)","value":"erdosteine"}],"code":{"coding":[{"system":"https://www.hira.or.kr","code":"153101ACH","display":"erdosteine"}]}}}}]}},{"resource":{"resourceType":"Medication","id":"16100015","meta":{"profile":["https://simplifier.net/myhealthway/StructureDefinition/PublicMedication"]},"identifier":[{"system":"리소스식별자(미정)","value":"medication1"}],"contained":[{"resourceType":"Substance","id":"163000001","identifier":[{"system":"리소스식별자(미정)","value":"cefuroxime axetil (as cefuroxime)"}],"code":{"coding":[{"system":"https://www.hira.or.kr","code":"128903ATB","display":"cefuroxime axetil (as cefuroxime)"}]}}],"code":{"coding":[{"system":"https://biz.kpis.or.kr/CodeSystem/kdcode","code":"643702060","display":"진세프정(세푸록심악세틸)(수출명:진세프틸정,제프렉소민정)_(0.30072g/1정)"}],"text":"진세프정(세푸록심악세틸)(수출명:진세프틸정,제프렉소민정)_(0.30072g/1정)"},"ingredient":[{"itemReference":{"reference":"Substance/163000001","resource":{"resourceType":"Substance","id":"163000001","identifier":[{"system":"리소스식별자(미정)","value":"cefuroxime axetil (as cefuroxime)"}],"code":{"coding":[{"system":"https://www.hira.or.kr","code":"128903ATB","display":"cefuroxime axetil (as cefuroxime)"}]}}}}]}},{"resource":{"resourceType":"Medication","id":"16100016","meta":{"profile":["https://simplifier.net/myhealthway/StructureDefinition/PublicMedication"]},"identifier":[{"system":"리소스식별자(미정)","value":"medication1"}],"contained":[{"resourceType":"Substance","id":"163000001","identifier":[{"system":"리소스식별자(미정)","value":"pseudoephedrine hydrochloride"}],"code":{"coding":[{"system":"https://www.hira.or.kr","code":"220902ATB","display":"pseudoephedrine hydrochloride"}]}}],"code":{"coding":[{"system":"https://biz.kpis.or.kr/CodeSystem/kdcode","code":"643900710","display":"슈다페드정(슈도에페드린염산염)_(60mg/1정)"}],"text":"슈다페드정(슈도에페드린염산염)_(60mg/1정)"},"ingredient":[{"itemReference":{"reference":"Substance/163000001","resource":{"resourceType":"Substance","id":"163000001","identifier":[{"system":"리소스식별자(미정)","value":"pseudoephedrine hydrochloride"}],"code":{"coding":[{"system":"https://www.hira.or.kr","code":"220902ATB","display":"pseudoephedrine hydrochloride"}]}}}}]}},{"resource":{"resourceType":"Medication","id":"16100017","meta":{"profile":["https://simplifier.net/myhealthway/StructureDefinition/PublicMedication"]},"identifier":[{"system":"리소스식별자(미정)","value":"medication1"}],"contained":[{"resourceType":"Substance","id":"163000001","identifier":[{"system":"리소스식별자(미정)","value":"mosapride citrate hydrate (as mosapride)"}],"code":{"coding":[{"system":"https://www.hira.or.kr","code":"421001ATB","display":"mosapride citrate hydrate (as mosapride)"}]}}],"code":{"coding":[{"system":"https://biz.kpis.or.kr/CodeSystem/kdcode","code":"647804090","display":"모메릭정5밀리그램(모사프리드시트르산염수화물)_(5.29mg/1정)"}],"text":"모메릭정5밀리그램(모사프리드시트르산염수화물)_(5.29mg/1정)"},"ingredient":[{"itemReference":{"reference":"Substance/163000001","resource":{"resourceType":"Substance","id":"163000001","identifier":[{"system":"리소스식별자(미정)","value":"mosapride citrate hydrate (as mosapride)"}],"code":{"coding":[{"system":"https://www.hira.or.kr","code":"421001ATB","display":"mosapride citrate hydrate (as mosapride)"}]}}}}]}},{"resource":{"resourceType":"Medication","id":"16100018","meta":{"profile":["https://simplifier.net/myhealthway/StructureDefinition/PublicMedication"]},"identifier":[{"system":"리소스식별자(미정)","value":"medication1"}],"contained":[{"resourceType":"Substance","id":"163000001","identifier":[{"system":"리소스식별자(미정)","value":"erdosteine"}],"code":{"coding":[{"system":"https://www.hira.or.kr","code":"153101ACH","display":"erdosteine"}]}}],"code":{"coding":[{"system":"https://biz.kpis.or.kr/CodeSystem/kdcode","code":"647804400","display":"브론펙트캡슐(에르도스테인)_(0.3g/1캡슐)"}],"text":"브론펙트캡슐(에르도스테인)_(0.3g/1캡슐)"},"ingredient":[{"itemReference":{"reference":"Substance/163000001","resource":{"resourceType":"Substance","id":"163000001","identifier":[{"system":"리소스식별자(미정)","value":"erdosteine"}],"code":{"coding":[{"system":"https://www.hira.or.kr","code":"153101ACH","display":"erdosteine"}]}}}}]}},{"resource":{"resourceType":"Medication","id":"16100019","meta":{"profile":["https://simplifier.net/myhealthway/StructureDefinition/PublicMedication"]},"identifier":[{"system":"리소스식별자(미정)","value":"medication1"}],"contained":[{"resourceType":"Substance","id":"163000001","identifier":[{"system":"리소스식별자(미정)","value":"tiropramide hydrochloride"}],"code":{"coding":[{"system":"https://www.hira.or.kr","code":"240301ATB","display":"tiropramide hydrochloride"}]}}],"code":{"coding":[{"system":"https://biz.kpis.or.kr/CodeSystem/kdcode","code":"641602470","display":"티로파정(티로프라미드염산염)_(0.1g/1정)"}],"text":"티로파정(티로프라미드염산염)_(0.1g/1정)"},"ingredient":[{"itemReference":{"reference":"Substance/163000001","resource":{"resourceType":"Substance","id":"163000001","identifier":[{"system":"리소스식별자(미정)","value":"tiropramide hydrochloride"}],"code":{"coding":[{"system":"https://www.hira.or.kr","code":"240301ATB","display":"tiropramide hydrochloride"}]}}}}]}},{"resource":{"resourceType":"Medication","id":"16100020","meta":{"profile":["https://simplifier.net/myhealthway/StructureDefinition/PublicMedication"]},"identifier":[{"system":"리소스식별자(미정)","value":"medication1"}],"contained":[{"resourceType":"Substance","id":"163000001","identifier":[{"system":"리소스식별자(미정)","value":"dioctahedral smectite"}],"code":{"coding":[{"system":"https://www.hira.or.kr","code":"146431ASS","display":"dioctahedral smectite"}]}}],"code":{"coding":[{"system":"https://biz.kpis.or.kr/CodeSystem/kdcode","code":"641607171","display":"스타빅현탁액(디옥타헤드랄스멕타이트)_(3g/20mL)"}],"text":"스타빅현탁액(디옥타헤드랄스멕타이트)_(3g/20mL)"},"ingredient":[{"itemReference":{"reference":"Substance/163000001","resource":{"resourceType":"Substance","id":"163000001","identifier":[{"system":"리소스식별자(미정)","value":"dioctahedral smectite"}],"code":{"coding":[{"system":"https://www.hira.or.kr","code":"146431ASS","display":"dioctahedral smectite"}]}}}}]}},{"resource":{"resourceType":"Medication","id":"16100021","meta":{"profile":["https://simplifier.net/myhealthway/StructureDefinition/PublicMedication"]},"identifier":[{"system":"리소스식별자(미정)","value":"medication1"}],"contained":[{"resourceType":"Substance","id":"163000001","identifier":[{"system":"리소스식별자(미정)","value":"acetaminophen(encapsulated)"}],"code":{"coding":[{"system":"https://www.hira.or.kr","code":"101430ATR","display":"acetaminophen(encapsulated)"}]}}],"code":{"coding":[{"system":"https://biz.kpis.or.kr/CodeSystem/kdcode","code":"643501510","display":"써스펜8시간이알서방정650밀리그램(아세트아미노펜)_(0.65g/1정)"}],"text":"써스펜8시간이알서방정650밀리그램(아세트아미노펜)_(0.65g/1정)"},"ingredient":[{"itemReference":{"reference":"Substance/163000001","resource":{"resourceType":"Substance","id":"163000001","identifier":[{"system":"리소스식별자(미정)","value":"acetaminophen(encapsulated)"}],"code":{"coding":[{"system":"https://www.hira.or.kr","code":"101430ATR","display":"acetaminophen(encapsulated)"}]}}}}]}},{"resource":{"resourceType":"Medication","id":"16100022","meta":{"profile":["https://simplifier.net/myhealthway/StructureDefinition/PublicMedication"]},"identifier":[{"system":"리소스식별자(미정)","value":"medication1"}],"contained":[{"resourceType":"Substance","id":"163000001","identifier":[{"system":"리소스식별자(미정)","value":"famotidine"}],"code":{"coding":[{"system":"https://www.hira.or.kr","code":"157302ATB","display":"famotidine"}]}}],"code":{"coding":[{"system":"https://biz.kpis.or.kr/CodeSystem/kdcode","code":"644102110","display":"베스티딘정20밀리그램(파모티딘)_(20mg/1정)"}],"text":"베스티딘정20밀리그램(파모티딘)_(20mg/1정)"},"ingredient":[{"itemReference":{"reference":"Substance/163000001","resource":{"resourceType":"Substance","id":"163000001","identifier":[{"system":"리소스식별자(미정)","value":"famotidine"}],"code":{"coding":[{"system":"https://www.hira.or.kr","code":"157302ATB","display":"famotidine"}]}}}}]}},{"resource":{"resourceType":"Medication","id":"16100023","meta":{"profile":["https://simplifier.net/myhealthway/StructureDefinition/PublicMedication"]},"identifier":[{"system":"리소스식별자(미정)","value":"medication1"}],"contained":[{"resourceType":"Substance","id":"163000001","identifier":[{"system":"리소스식별자(미정)","value":"saccharomyces boulardii"}],"code":{"coding":[{"system":"https://www.hira.or.kr","code":"225402ACH","display":"saccharomyces boulardii"}]}}],"code":{"coding":[{"system":"https://biz.kpis.or.kr/CodeSystem/kdcode","code":"646802540","display":"비오플250캡슐(사카로마이세스보울라르디균)_(0.2825g/1캡슐)"}],"text":"비오플250캡슐(사카로마이세스보울라르디균)_(0.2825g/1캡슐)"},"ingredient":[{"itemReference":{"reference":"Substance/163000001","resource":{"resourceType":"Substance","id":"163000001","identifier":[{"system":"리소스식별자(미정)","value":"saccharomyces boulardii"}],"code":{"coding":[{"system":"https://www.hira.or.kr","code":"225402ACH","display":"saccharomyces boulardii"}]}}}}]}},{"resource":{"resourceType":"Medication","id":"16100024","meta":{"profile":["https://simplifier.net/myhealthway/StructureDefinition/PublicMedication"]},"identifier":[{"system":"리소스식별자(미정)","value":"medication1"}],"contained":[{"resourceType":"Substance","id":"163000001","identifier":[{"system":"리소스식별자(미정)","value":"loperamide hydrochloride"}],"code":{"coding":[{"system":"https://www.hira.or.kr","code":"185102ACH","display":"loperamide hydrochloride"}]}}],"code":{"coding":[{"system":"https://biz.kpis.or.kr/CodeSystem/kdcode","code":"649400510","display":"로프민캡슐(로페라미드염산염)_(2mg/1캡슐)"}],"text":"로프민캡슐(로페라미드염산염)_(2mg/1캡슐)"},"ingredient":[{"itemReference":{"reference":"Substance/163000001","resource":{"resourceType":"Substance","id":"163000001","identifier":[{"system":"리소스식별자(미정)","value":"loperamide hydrochloride"}],"code":{"coding":[{"system":"https://www.hira.or.kr","code":"185102ACH","display":"loperamide hydrochloride"}]}}}}]}},{"resource":{"resourceType":"Medication","id":"16100025","meta":{"profile":["https://simplifier.net/myhealthway/StructureDefinition/PublicMedication"]},"identifier":[{"system":"리소스식별자(미정)","value":"medication1"}],"contained":[{"resourceType":"Substance","id":"163000001","identifier":[{"system":"리소스식별자(미정)","value":"pseudoephedrine hydrochloride"}],"code":{"coding":[{"system":"https://www.hira.or.kr","code":"220902ATB","display":"pseudoephedrine hydrochloride"}]}}],"code":{"coding":[{"system":"https://biz.kpis.or.kr/CodeSystem/kdcode","code":"643900710","display":"슈다페드정(슈도에페드린염산염)_(60mg/1정)"}],"text":"슈다페드정(슈도에페드린염산염)_(60mg/1정)"},"ingredient":[{"itemReference":{"reference":"Substance/163000001","resource":{"resourceType":"Substance","id":"163000001","identifier":[{"system":"리소스식별자(미정)","value":"pseudoephedrine hydrochloride"}],"code":{"coding":[{"system":"https://www.hira.or.kr","code":"220902ATB","display":"pseudoephedrine hydrochloride"}]}}}}]}},{"resource":{"resourceType":"Medication","id":"16100026","meta":{"profile":["https://simplifier.net/myhealthway/StructureDefinition/PublicMedication"]},"identifier":[{"system":"리소스식별자(미정)","value":"medication1"}],"contained":[{"resourceType":"Substance","id":"163000001","identifier":[{"system":"리소스식별자(미정)","value":"mosapride citrate hydrate (as mosapride)"}],"code":{"coding":[{"system":"https://www.hira.or.kr","code":"421001ATB","display":"mosapride citrate hydrate (as mosapride)"}]}}],"code":{"coding":[{"system":"https://biz.kpis.or.kr/CodeSystem/kdcode","code":"647804090","display":"모메릭정5밀리그램(모사프리드시트르산염수화물)_(5.29mg/1정)"}],"text":"모메릭정5밀리그램(모사프리드시트르산염수화물)_(5.29mg/1정)"},"ingredient":[{"itemReference":{"reference":"Substance/163000001","resource":{"resourceType":"Substance","id":"163000001","identifier":[{"system":"리소스식별자(미정)","value":"mosapride citrate hydrate (as mosapride)"}],"code":{"coding":[{"system":"https://www.hira.or.kr","code":"421001ATB","display":"mosapride citrate hydrate (as mosapride)"}]}}}}]}},{"resource":{"resourceType":"Medication","id":"16100027","meta":{"profile":["https://simplifier.net/myhealthway/StructureDefinition/PublicMedication"]},"identifier":[{"system":"리소스식별자(미정)","value":"medication1"}],"contained":[{"resourceType":"Substance","id":"163000001","identifier":[{"system":"리소스식별자(미정)","value":"erdosteine"}],"code":{"coding":[{"system":"https://www.hira.or.kr","code":"153101ACH","display":"erdosteine"}]}}],"code":{"coding":[{"system":"https://biz.kpis.or.kr/CodeSystem/kdcode","code":"647804400","display":"브론펙트캡슐(에르도스테인)_(0.3g/1캡슐)"}],"text":"브론펙트캡슐(에르도스테인)_(0.3g/1캡슐)"},"ingredient":[{"itemReference":{"reference":"Substance/163000001","resource":{"resourceType":"Substance","id":"163000001","identifier":[{"system":"리소스식별자(미정)","value":"erdosteine"}],"code":{"coding":[{"system":"https://www.hira.or.kr","code":"153101ACH","display":"erdosteine"}]}}}}]}},{"resource":{"resourceType":"Medication","id":"16100028","meta":{"profile":["https://simplifier.net/myhealthway/StructureDefinition/PublicMedication"]},"identifier":[{"system":"리소스식별자(미정)","value":"medication1"}],"contained":[{"resourceType":"Substance","id":"163000001","identifier":[{"system":"리소스식별자(미정)","value":"levocloperastine fendizoate (as cloperastine hydrochloride)"}],"code":{"coding":[{"system":"https://www.hira.or.kr","code":"429030ASS","display":"levocloperastine fendizoate (as cloperastine hydrochloride)"}]}}],"code":{"coding":[{"system":"https://biz.kpis.or.kr/CodeSystem/kdcode","code":"671803511","display":"프리비투스현탁액(레보클로페라스틴펜디조산염)_(56.64mg/8mL)"}],"text":"프리비투스현탁액(레보클로페라스틴펜디조산염)_(56.64mg/8mL)"},"ingredient":[{"itemReference":{"reference":"Substance/163000001","resource":{"resourceType":"Substance","id":"163000001","identifier":[{"system":"리소스식별자(미정)","value":"levocloperastine fendizoate (as cloperastine hydrochloride)"}],"code":{"coding":[{"system":"https://www.hira.or.kr","code":"429030ASS","display":"levocloperastine fendizoate (as cloperastine hydrochloride)"}]}}}}]}},{"resource":{"resourceType":"Medication","id":"16100029","meta":{"profile":["https://simplifier.net/myhealthway/StructureDefinition/PublicMedication"]},"identifier":[{"system":"리소스식별자(미정)","value":"medication1"}],"contained":[{"resourceType":"Substance","id":"163000001","identifier":[{"system":"리소스식별자(미정)","value":"bepotastine besilate"}],"code":{"coding":[{"system":"https://www.hira.or.kr","code":"453902ATB","display":"bepotastine besilate"}]}}],"code":{"coding":[{"system":"https://biz.kpis.or.kr/CodeSystem/kdcode","code":"671806480","display":"베포스타비정(베포타스틴베실산염)_(10mg/1정)"}],"text":"베포스타비정(베포타스틴베실산염)_(10mg/1정)"},"ingredient":[{"itemReference":{"reference":"Substance/163000001","resource":{"resourceType":"Substance","id":"163000001","identifier":[{"system":"리소스식별자(미정)","value":"bepotastine besilate"}],"code":{"coding":[{"system":"https://www.hira.or.kr","code":"453902ATB","display":"bepotastine besilate"}]}}}}]}},{"resource":{"resourceType":"ExplanationOfBenefit","id":"17000002","meta":{"profile":["https://simplifier.net/myhealthway/StructureDefinition/PublicExplanationOfBenefit"]},"identifier":[{"system":"리소스식별자(미정)","value":"3a854571-38d4-4096-b71f-542c1f4f1c45"}],"contained":[{"resourceType":"Organization","id":"17100001","type":[{"coding":[{"system":"미정","code":"미정","display":"보험사"}],"text":"보험사"}],"name":"국민건강보험공단"},{"resourceType":"Organization","id":"17100002","type":[{"coding":[{"system":"미정","code":"미정","display":"병의원"}],"text":"병의원"}],"name":"강남삼성드림이비인후과의원","address":[{"text":"강남구 강남대로"}]},{"resourceType":"Coverage","id":"17300001","status":"active","beneficiary":{"reference":"Patient/10000000","resource":{"resourceType":"Patient","id":"10000000","meta":{"profile":["https://simplifier.net/myhealthway/StructureDefinition/PublicPatient"]},"identifier":[{"type":{"coding":[{"system":"http://myhealthway.go.kr(가칭)","code":"MHID"}]},"system":"미정","value":"10237464"},{"type":{"coding":[{"system":"http://terminology.hl7.org/CodeSystem/v2-0203","code":"NNKOR"}]},"system":"http://mois.go.kr/rnn","value":"9206272******"}],"name":[{"text":"정한나"}]}},"payor":[{"reference":"Organization/17100002","resource":{"resourceType":"Organization","id":"17100002","type":[{"coding":[{"system":"미정","code":"미정","display":"병의원"}],"text":"병의원"}],"name":"강남삼성드림이비인후과의원","address":[{"text":"강남구 강남대로"}]}}]}],"status":"active","type":{"coding":[{"system":"http://terminology.hl7.org/CodeSystem/claim-type","code":"institutional","display":"institutional"}]},"use":"claim","patient":{"reference":"Patient/10000000","resource":{"resourceType":"Patient","id":"10000000","meta":{"profile":["https://simplifier.net/myhealthway/StructureDefinition/PublicPatient"]},"identifier":[{"type":{"coding":[{"system":"http://myhealthway.go.kr(가칭)","code":"MHID"}]},"system":"미정","value":"10237464"},{"type":{"coding":[{"system":"http://terminology.hl7.org/CodeSystem/v2-0203","code":"NNKOR"}]},"system":"http://mois.go.kr/rnn","value":"9206272******"}],"name":[{"text":"정한나"}]}},"billablePeriod":{"start":"2025-04-10"},"created":"2025-04-10","insurer":{"reference":"Organization/17100001","resource":{"resourceType":"Organization","id":"17100001","type":[{"coding":[{"system":"미정","code":"미정","display":"보험사"}],"text":"보험사"}],"name":"국민건강보험공단"}},"provider":{"reference":"Organization/17100002","resource":{"resourceType":"Organization","id":"17100002","type":[{"coding":[{"system":"미정","code":"미정","display":"병의원"}],"text":"병의원"}],"name":"강남삼성드림이비인후과의원","address":[{"text":"강남구 강남대로"}]}},"outcome":"complete","supportingInfo":[{"sequence":1,"category":{"coding":[{"system":"http://terminology.hl7.org/CodeSystem/claiminformationcategory","code":"hospitalized","display":"Hosptialized"}]},"code":{"text":"1"}},{"sequence":2,"category":{"coding":[{"system":"http://terminology.hl7.org/CodeSystem/claiminformationcategory","code":"related","display":"Related Service"}]},"code":{"text":"1"}},{"sequence":3,"category":{"coding":[{"system":"http://terminology.hl7.org/CodeSystem/claiminformationcategory","code":"other","display":"Other"}]},"code":{"text":"1"}}],"total":[{"category":{"coding":[{"system":"http://terminology.hl7.org/CodeSystem/adjudication","code":"copay","display":"CoPay"}]},"amount":{"value":5500,"currency":"KRW"}},{"category":{"coding":[{"system":"http://terminology.hl7.org/CodeSystem/adjudication","code":"benefit","display":"Benefit Amount"}]},"amount":{"value":12910,"currency":"KRW"}}]}},{"resource":{"resourceType":"ExplanationOfBenefit","id":"17000001","meta":{"profile":["https://simplifier.net/myhealthway/StructureDefinition/PublicExplanationOfBenefit"]},"identifier":[{"system":"리소스식별자(미정)","value":"d054c518-0c9d-45b1-a4b4-fed84eabbfef"}],"contained":[{"resourceType":"Organization","id":"17100001","type":[{"coding":[{"system":"미정","code":"미정","display":"보험사"}],"text":"보험사"}],"name":"국민건강보험공단"},{"resourceType":"Organization","id":"17100002","type":[{"coding":[{"system":"미정","code":"미정","display":"약국"}],"text":"약국"}],"name":"화인약국","address":[{"text":"강남구 강남대로"}]},{"resourceType":"Coverage","id":"17300001","status":"active","beneficiary":{"reference":"Patient/10000000","resource":{"resourceType":"Patient","id":"10000000","meta":{"profile":["https://simplifier.net/myhealthway/StructureDefinition/PublicPatient"]},"identifier":[{"type":{"coding":[{"system":"http://myhealthway.go.kr(가칭)","code":"MHID"}]},"system":"미정","value":"10237464"},{"type":{"coding":[{"system":"http://terminology.hl7.org/CodeSystem/v2-0203","code":"NNKOR"}]},"system":"http://mois.go.kr/rnn","value":"9206272******"}],"name":[{"text":"정한나"}]}},"payor":[{"reference":"Organization/17100002","resource":{"resourceType":"Organization","id":"17100002","type":[{"coding":[{"system":"미정","code":"미정","display":"약국"}],"text":"약국"}],"name":"화인약국","address":[{"text":"강남구 강남대로"}]}}]}],"status":"active","type":{"coding":[{"system":"http://terminology.hl7.org/CodeSystem/claim-type","code":"pharmacy","display":"pharmacy"}]},"use":"claim","patient":{"reference":"Patient/10000000","resource":{"resourceType":"Patient","id":"10000000","meta":{"profile":["https://simplifier.net/myhealthway/StructureDefinition/PublicPatient"]},"identifier":[{"type":{"coding":[{"system":"http://myhealthway.go.kr(가칭)","code":"MHID"}]},"system":"미정","value":"10237464"},{"type":{"coding":[{"system":"http://terminology.hl7.org/CodeSystem/v2-0203","code":"NNKOR"}]},"system":"http://mois.go.kr/rnn","value":"9206272******"}],"name":[{"text":"정한나"}]}},"billablePeriod":{"start":"2025-04-10"},"created":"2025-04-10","insurer":{"reference":"Organization/17100001","resource":{"resourceType":"Organization","id":"17100001","type":[{"coding":[{"system":"미정","code":"미정","display":"보험사"}],"text":"보험사"}],"name":"국민건강보험공단"}},"provider":{"reference":"Organization/17100002","resource":{"resourceType":"Organization","id":"17100002","type":[{"coding":[{"system":"미정","code":"미정","display":"약국"}],"text":"약국"}],"name":"화인약국","address":[{"text":"강남구 강남대로"}]}},"outcome":"complete","supportingInfo":[{"sequence":1,"category":{"coding":[{"system":"http://terminology.hl7.org/CodeSystem/claiminformationcategory","code":"hospitalized","display":"Hosptialized"}]},"code":{"text":"1"}},{"sequence":2,"category":{"coding":[{"system":"http://terminology.hl7.org/CodeSystem/claiminformationcategory","code":"related","display":"Related Service"}]},"code":{"text":"1"}},{"sequence":3,"category":{"coding":[{"system":"http://terminology.hl7.org/CodeSystem/claiminformationcategory","code":"other","display":"Other"}]},"code":{"text":"3"}}],"total":[{"category":{"coding":[{"system":"http://terminology.hl7.org/CodeSystem/adjudication","code":"copay","display":"CoPay"}]},"amount":{"value":3700,"currency":"KRW"}},{"category":{"coding":[{"system":"http://terminology.hl7.org/CodeSystem/adjudication","code":"benefit","display":"Benefit Amount"}]},"amount":{"value":8770,"currency":"KRW"}}]}},{"resource":{"resourceType":"ExplanationOfBenefit","id":"17000004","meta":{"profile":["https://simplifier.net/myhealthway/StructureDefinition/PublicExplanationOfBenefit"]},"identifier":[{"system":"리소스식별자(미정)","value":"e3957fa0-07b5-497d-bbe3-bd0d25953614"}],"contained":[{"resourceType":"Organization","id":"17100001","type":[{"coding":[{"system":"미정","code":"미정","display":"보험사"}],"text":"보험사"}],"name":"국민건강보험공단"},{"resourceType":"Organization","id":"17100002","type":[{"coding":[{"system":"미정","code":"미정","display":"약국"}],"text":"약국"}],"name":"반석온누리약국","address":[{"text":"영등포구 영등포로"}]},{"resourceType":"Coverage","id":"17300001","status":"active","beneficiary":{"reference":"Patient/10000000","resource":{"resourceType":"Patient","id":"10000000","meta":{"profile":["https://simplifier.net/myhealthway/StructureDefinition/PublicPatient"]},"identifier":[{"type":{"coding":[{"system":"http://myhealthway.go.kr(가칭)","code":"MHID"}]},"system":"미정","value":"10237464"},{"type":{"coding":[{"system":"http://terminology.hl7.org/CodeSystem/v2-0203","code":"NNKOR"}]},"system":"http://mois.go.kr/rnn","value":"9206272******"}],"name":[{"text":"정한나"}]}},"payor":[{"reference":"Organization/17100002","resource":{"resourceType":"Organization","id":"17100002","type":[{"coding":[{"system":"미정","code":"미정","display":"약국"}],"text":"약국"}],"name":"반석온누리약국","address":[{"text":"영등포구 영등포로"}]}}]}],"status":"active","type":{"coding":[{"system":"http://terminology.hl7.org/CodeSystem/claim-type","code":"pharmacy","display":"pharmacy"}]},"use":"claim","patient":{"reference":"Patient/10000000","resource":{"resourceType":"Patient","id":"10000000","meta":{"profile":["https://simplifier.net/myhealthway/StructureDefinition/PublicPatient"]},"identifier":[{"type":{"coding":[{"system":"http://myhealthway.go.kr(가칭)","code":"MHID"}]},"system":"미정","value":"10237464"},{"type":{"coding":[{"system":"http://terminology.hl7.org/CodeSystem/v2-0203","code":"NNKOR"}]},"system":"http://mois.go.kr/rnn","value":"9206272******"}],"name":[{"text":"정한나"}]}},"billablePeriod":{"start":"2025-02-10"},"created":"2025-02-10","insurer":{"reference":"Organization/17100001","resource":{"resourceType":"Organization","id":"17100001","type":[{"coding":[{"system":"미정","code":"미정","display":"보험사"}],"text":"보험사"}],"name":"국민건강보험공단"}},"provider":{"reference":"Organization/17100002","resource":{"resourceType":"Organization","id":"17100002","type":[{"coding":[{"system":"미정","code":"미정","display":"약국"}],"text":"약국"}],"name":"반석온누리약국","address":[{"text":"영등포구 영등포로"}]}},"outcome":"complete","supportingInfo":[{"sequence":1,"category":{"coding":[{"system":"http://terminology.hl7.org/CodeSystem/claiminformationcategory","code":"hospitalized","display":"Hosptialized"}]},"code":{"text":"1"}},{"sequence":2,"category":{"coding":[{"system":"http://terminology.hl7.org/CodeSystem/claiminformationcategory","code":"related","display":"Related Service"}]},"code":{"text":"1"}},{"sequence":3,"category":{"coding":[{"system":"http://terminology.hl7.org/CodeSystem/claiminformationcategory","code":"other","display":"Other"}]},"code":{"text":"2"}}],"total":[{"category":{"coding":[{"system":"http://terminology.hl7.org/CodeSystem/adjudication","code":"copay","display":"CoPay"}]},"amount":{"value":2400,"currency":"KRW"}},{"category":{"coding":[{"system":"http://terminology.hl7.org/CodeSystem/adjudication","code":"benefit","display":"Benefit Amount"}]},"amount":{"value":5730,"currency":"KRW"}}]}},{"resource":{"resourceType":"ExplanationOfBenefit","id":"17000003","meta":{"profile":["https://simplifier.net/myhealthway/StructureDefinition/PublicExplanationOfBenefit"]},"identifier":[{"system":"리소스식별자(미정)","value":"98b89fd9-5fed-489a-9365-fd1d1042e80a"}],"contained":[{"resourceType":"Organization","id":"17100001","type":[{"coding":[{"system":"미정","code":"미정","display":"보험사"}],"text":"보험사"}],"name":"국민건강보험공단"},{"resourceType":"Organization","id":"17100002","type":[{"coding":[{"system":"미정","code":"미정","display":"병의원"}],"text":"병의원"}],"name":"임이비인후과의원","address":[{"text":"영등포구 영등포로"}]},{"resourceType":"Coverage","id":"17300001","status":"active","beneficiary":{"reference":"Patient/10000000","resource":{"resourceType":"Patient","id":"10000000","meta":{"profile":["https://simplifier.net/myhealthway/StructureDefinition/PublicPatient"]},"identifier":[{"type":{"coding":[{"system":"http://myhealthway.go.kr(가칭)","code":"MHID"}]},"system":"미정","value":"10237464"},{"type":{"coding":[{"system":"http://terminology.hl7.org/CodeSystem/v2-0203","code":"NNKOR"}]},"system":"http://mois.go.kr/rnn","value":"9206272******"}],"name":[{"text":"정한나"}]}},"payor":[{"reference":"Organization/17100002","resource":{"resourceType":"Organization","id":"17100002","type":[{"coding":[{"system":"미정","code":"미정","display":"병의원"}],"text":"병의원"}],"name":"임이비인후과의원","address":[{"text":"영등포구 영등포로"}]}}]}],"status":"active","type":{"coding":[{"system":"http://terminology.hl7.org/CodeSystem/claim-type","code":"institutional","display":"institutional"}]},"use":"claim","patient":{"reference":"Patient/10000000","resource":{"resourceType":"Patient","id":"10000000","meta":{"profile":["https://simplifier.net/myhealthway/StructureDefinition/PublicPatient"]},"identifier":[{"type":{"coding":[{"system":"http://myhealthway.go.kr(가칭)","code":"MHID"}]},"system":"미정","value":"10237464"},{"type":{"coding":[{"system":"http://terminology.hl7.org/CodeSystem/v2-0203","code":"NNKOR"}]},"system":"http://mois.go.kr/rnn","value":"9206272******"}],"name":[{"text":"정한나"}]}},"billablePeriod":{"start":"2025-02-10"},"created":"2025-02-10","insurer":{"reference":"Organization/17100001","resource":{"resourceType":"Organization","id":"17100001","type":[{"coding":[{"system":"미정","code":"미정","display":"보험사"}],"text":"보험사"}],"name":"국민건강보험공단"}},"provider":{"reference":"Organization/17100002","resource":{"resourceType":"Organization","id":"17100002","type":[{"coding":[{"system":"미정","code":"미정","display":"병의원"}],"text":"병의원"}],"name":"임이비인후과의원","address":[{"text":"영등포구 영등포로"}]}},"outcome":"complete","supportingInfo":[{"sequence":1,"category":{"coding":[{"system":"http://terminology.hl7.org/CodeSystem/claiminformationcategory","code":"hospitalized","display":"Hosptialized"}]},"code":{"text":"1"}},{"sequence":2,"category":{"coding":[{"system":"http://terminology.hl7.org/CodeSystem/claiminformationcategory","code":"related","display":"Related Service"}]},"code":{"text":"1"}},{"sequence":3,"category":{"coding":[{"system":"http://terminology.hl7.org/CodeSystem/claiminformationcategory","code":"other","display":"Other"}]},"code":{"text":"1"}}],"total":[{"category":{"coding":[{"system":"http://terminology.hl7.org/CodeSystem/adjudication","code":"copay","display":"CoPay"}]},"amount":{"value":6100,"currency":"KRW"}},{"category":{"coding":[{"system":"http://terminology.hl7.org/CodeSystem/adjudication","code":"benefit","display":"Benefit Amount"}]},"amount":{"value":14440,"currency":"KRW"}}]}},{"resource":{"resourceType":"ExplanationOfBenefit","id":"17000005","meta":{"profile":["https://simplifier.net/myhealthway/StructureDefinition/PublicExplanationOfBenefit"]},"identifier":[{"system":"리소스식별자(미정)","value":"e924fe00-7e5b-4031-acf6-1d22917e9e7f"}],"contained":[{"resourceType":"Organization","id":"17100001","type":[{"coding":[{"system":"미정","code":"미정","display":"보험사"}],"text":"보험사"}],"name":"국민건강보험공단"},{"resourceType":"Organization","id":"17100002","type":[{"coding":[{"system":"미정","code":"미정","display":"병의원"}],"text":"병의원"}],"name":"참길이비인후과의원","address":[{"text":"마포구 마포대로"}]},{"resourceType":"Coverage","id":"17300001","status":"active","beneficiary":{"reference":"Patient/10000000","resource":{"resourceType":"Patient","id":"10000000","meta":{"profile":["https://simplifier.net/myhealthway/StructureDefinition/PublicPatient"]},"identifier":[{"type":{"coding":[{"system":"http://myhealthway.go.kr(가칭)","code":"MHID"}]},"system":"미정","value":"10237464"},{"type":{"coding":[{"system":"http://terminology.hl7.org/CodeSystem/v2-0203","code":"NNKOR"}]},"system":"http://mois.go.kr/rnn","value":"9206272******"}],"name":[{"text":"정한나"}]}},"payor":[{"reference":"Organization/17100002","resource":{"resourceType":"Organization","id":"17100002","type":[{"coding":[{"system":"미정","code":"미정","display":"병의원"}],"text":"병의원"}],"name":"참길이비인후과의원","address":[{"text":"마포구 마포대로"}]}}]}],"status":"active","type":{"coding":[{"system":"http://terminology.hl7.org/CodeSystem/claim-type","code":"institutional","display":"institutional"}]},"use":"claim","patient":{"reference":"Patient/10000000","resource":{"resourceType":"Patient","id":"10000000","meta":{"profile":["https://simplifier.net/myhealthway/StructureDefinition/PublicPatient"]},"identifier":[{"type":{"coding":[{"system":"http://myhealthway.go.kr(가칭)","code":"MHID"}]},"system":"미정","value":"10237464"},{"type":{"coding":[{"system":"http://terminology.hl7.org/CodeSystem/v2-0203","code":"NNKOR"}]},"system":"http://mois.go.kr/rnn","value":"9206272******"}],"name":[{"text":"정한나"}]}},"billablePeriod":{"start":"2024-11-08"},"created":"2024-11-08","insurer":{"reference":"Organization/17100001","resource":{"resourceType":"Organization","id":"17100001","type":[{"coding":[{"system":"미정","code":"미정","display":"보험사"}],"text":"보험사"}],"name":"국민건강보험공단"}},"provider":{"reference":"Organization/17100002","resource":{"resourceType":"Organization","id":"17100002","type":[{"coding":[{"system":"미정","code":"미정","display":"병의원"}],"text":"병의원"}],"name":"참길이비인후과의원","address":[{"text":"마포구 마포대로"}]}},"outcome":"complete","supportingInfo":[{"sequence":1,"category":{"coding":[{"system":"http://terminology.hl7.org/CodeSystem/claiminformationcategory","code":"hospitalized","display":"Hosptialized"}]},"code":{"text":"1"}},{"sequence":2,"category":{"coding":[{"system":"http://terminology.hl7.org/CodeSystem/claiminformationcategory","code":"related","display":"Related Service"}]},"code":{"text":"1"}},{"sequence":3,"category":{"coding":[{"system":"http://terminology.hl7.org/CodeSystem/claiminformationcategory","code":"other","display":"Other"}]},"code":{"text":"1"}}],"total":[{"category":{"coding":[{"system":"http://terminology.hl7.org/CodeSystem/adjudication","code":"copay","display":"CoPay"}]},"amount":{"value":4400,"currency":"KRW"}},{"category":{"coding":[{"system":"http://terminology.hl7.org/CodeSystem/adjudication","code":"benefit","display":"Benefit Amount"}]},"amount":{"value":10460,"currency":"KRW"}}]}},{"resource":{"resourceType":"ExplanationOfBenefit","id":"17000006","meta":{"profile":["https://simplifier.net/myhealthway/StructureDefinition/PublicExplanationOfBenefit"]},"identifier":[{"system":"리소스식별자(미정)","value":"351d15b2-4fc8-425c-a9f8-e9aafdd69c29"}],"contained":[{"resourceType":"Organization","id":"17100001","type":[{"coding":[{"system":"미정","code":"미정","display":"보험사"}],"text":"보험사"}],"name":"국민건강보험공단"},{"resourceType":"Organization","id":"17100002","type":[{"coding":[{"system":"미정","code":"미정","display":"약국"}],"text":"약국"}],"name":"포도약국","address":[{"text":"마포구 마포대로"}]},{"resourceType":"Coverage","id":"17300001","status":"active","beneficiary":{"reference":"Patient/10000000","resource":{"resourceType":"Patient","id":"10000000","meta":{"profile":["https://simplifier.net/myhealthway/StructureDefinition/PublicPatient"]},"identifier":[{"type":{"coding":[{"system":"http://myhealthway.go.kr(가칭)","code":"MHID"}]},"system":"미정","value":"10237464"},{"type":{"coding":[{"system":"http://terminology.hl7.org/CodeSystem/v2-0203","code":"NNKOR"}]},"system":"http://mois.go.kr/rnn","value":"9206272******"}],"name":[{"text":"정한나"}]}},"payor":[{"reference":"Organization/17100002","resource":{"resourceType":"Organization","id":"17100002","type":[{"coding":[{"system":"미정","code":"미정","display":"약국"}],"text":"약국"}],"name":"포도약국","address":[{"text":"마포구 마포대로"}]}}]}],"status":"active","type":{"coding":[{"system":"http://terminology.hl7.org/CodeSystem/claim-type","code":"pharmacy","display":"pharmacy"}]},"use":"claim","patient":{"reference":"Patient/10000000","resource":{"resourceType":"Patient","id":"10000000","meta":{"profile":["https://simplifier.net/myhealthway/StructureDefinition/PublicPatient"]},"identifier":[{"type":{"coding":[{"system":"http://myhealthway.go.kr(가칭)","code":"MHID"}]},"system":"미정","value":"10237464"},{"type":{"coding":[{"system":"http://terminology.hl7.org/CodeSystem/v2-0203","code":"NNKOR"}]},"system":"http://mois.go.kr/rnn","value":"9206272******"}],"name":[{"text":"정한나"}]}},"billablePeriod":{"start":"2024-11-08"},"created":"2024-11-08","insurer":{"reference":"Organization/17100001","resource":{"resourceType":"Organization","id":"17100001","type":[{"coding":[{"system":"미정","code":"미정","display":"보험사"}],"text":"보험사"}],"name":"국민건강보험공단"}},"provider":{"reference":"Organization/17100002","resource":{"resourceType":"Organization","id":"17100002","type":[{"coding":[{"system":"미정","code":"미정","display":"약국"}],"text":"약국"}],"name":"포도약국","address":[{"text":"마포구 마포대로"}]}},"outcome":"complete","supportingInfo":[{"sequence":1,"category":{"coding":[{"system":"http://terminology.hl7.org/CodeSystem/claiminformationcategory","code":"hospitalized","display":"Hosptialized"}]},"code":{"text":"1"}},{"sequence":2,"category":{"coding":[{"system":"http://terminology.hl7.org/CodeSystem/claiminformationcategory","code":"related","display":"Related Service"}]},"code":{"text":"1"}},{"sequence":3,"category":{"coding":[{"system":"http://terminology.hl7.org/CodeSystem/claiminformationcategory","code":"other","display":"Other"}]},"code":{"text":"3"}}],"total":[{"category":{"coding":[{"system":"http://terminology.hl7.org/CodeSystem/adjudication","code":"copay","display":"CoPay"}]},"amount":{"value":3600,"currency":"KRW"}},{"category":{"coding":[{"system":"http://terminology.hl7.org/CodeSystem/adjudication","code":"benefit","display":"Benefit Amount"}]},"amount":{"value":8570,"currency":"KRW"}}]}},{"resource":{"resourceType":"ExplanationOfBenefit","id":"17000008","meta":{"profile":["https://simplifier.net/myhealthway/StructureDefinition/PublicExplanationOfBenefit"]},"identifier":[{"system":"리소스식별자(미정)","value":"c8fbf692-f2cd-4029-98c8-28779eac6580"}],"contained":[{"resourceType":"Organization","id":"17100001","type":[{"coding":[{"system":"미정","code":"미정","display":"보험사"}],"text":"보험사"}],"name":"국민건강보험공단"},{"resourceType":"Organization","id":"17100002","type":[{"coding":[{"system":"미정","code":"미정","display":"병의원"}],"text":"병의원"}],"name":"참길이비인후과의원","address":[{"text":"마포구 마포대로"}]},{"resourceType":"Coverage","id":"17300001","status":"active","beneficiary":{"reference":"Patient/10000000","resource":{"resourceType":"Patient","id":"10000000","meta":{"profile":["https://simplifier.net/myhealthway/StructureDefinition/PublicPatient"]},"identifier":[{"type":{"coding":[{"system":"http://myhealthway.go.kr(가칭)","code":"MHID"}]},"system":"미정","value":"10237464"},{"type":{"coding":[{"system":"http://terminology.hl7.org/CodeSystem/v2-0203","code":"NNKOR"}]},"system":"http://mois.go.kr/rnn","value":"9206272******"}],"name":[{"text":"정한나"}]}},"payor":[{"reference":"Organization/17100002","resource":{"resourceType":"Organization","id":"17100002","type":[{"coding":[{"system":"미정","code":"미정","display":"병의원"}],"text":"병의원"}],"name":"참길이비인후과의원","address":[{"text":"마포구 마포대로"}]}}]}],"status":"active","type":{"coding":[{"system":"http://terminology.hl7.org/CodeSystem/claim-type","code":"institutional","display":"institutional"}]},"use":"claim","patient":{"reference":"Patient/10000000","resource":{"resourceType":"Patient","id":"10000000","meta":{"profile":["https://simplifier.net/myhealthway/StructureDefinition/PublicPatient"]},"identifier":[{"type":{"coding":[{"system":"http://myhealthway.go.kr(가칭)","code":"MHID"}]},"system":"미정","value":"10237464"},{"type":{"coding":[{"system":"http://terminology.hl7.org/CodeSystem/v2-0203","code":"NNKOR"}]},"system":"http://mois.go.kr/rnn","value":"9206272******"}],"name":[{"text":"정한나"}]}},"billablePeriod":{"start":"2024-11-06"},"created":"2024-11-06","insurer":{"reference":"Organization/17100001","resource":{"resourceType":"Organization","id":"17100001","type":[{"coding":[{"system":"미정","code":"미정","display":"보험사"}],"text":"보험사"}],"name":"국민건강보험공단"}},"provider":{"reference":"Organization/17100002","resource":{"resourceType":"Organization","id":"17100002","type":[{"coding":[{"system":"미정","code":"미정","display":"병의원"}],"text":"병의원"}],"name":"참길이비인후과의원","address":[{"text":"마포구 마포대로"}]}},"outcome":"complete","supportingInfo":[{"sequence":1,"category":{"coding":[{"system":"http://terminology.hl7.org/CodeSystem/claiminformationcategory","code":"hospitalized","display":"Hosptialized"}]},"code":{"text":"1"}},{"sequence":2,"category":{"coding":[{"system":"http://terminology.hl7.org/CodeSystem/claiminformationcategory","code":"related","display":"Related Service"}]},"code":{"text":"1"}},{"sequence":3,"category":{"coding":[{"system":"http://terminology.hl7.org/CodeSystem/claiminformationcategory","code":"other","display":"Other"}]},"code":{"text":"1"}}],"total":[{"category":{"coding":[{"system":"http://terminology.hl7.org/CodeSystem/adjudication","code":"copay","display":"CoPay"}]},"amount":{"value":11000,"currency":"KRW"}},{"category":{"coding":[{"system":"http://terminology.hl7.org/CodeSystem/adjudication","code":"benefit","display":"Benefit Amount"}]},"amount":{"value":25680,"currency":"KRW"}}]}},{"resource":{"resourceType":"ExplanationOfBenefit","id":"17000007","meta":{"profile":["https://simplifier.net/myhealthway/StructureDefinition/PublicExplanationOfBenefit"]},"identifier":[{"system":"리소스식별자(미정)","value":"5168ac90-3e44-46b4-93a6-28348c24a0cf"}],"contained":[{"resourceType":"Organization","id":"17100001","type":[{"coding":[{"system":"미정","code":"미정","display":"보험사"}],"text":"보험사"}],"name":"국민건강보험공단"},{"resourceType":"Organization","id":"17100002","type":[{"coding":[{"system":"미정","code":"미정","display":"약국"}],"text":"약국"}],"name":"포도약국","address":[{"text":"마포구 마포대로"}]},{"resourceType":"Coverage","id":"17300001","status":"active","beneficiary":{"reference":"Patient/10000000","resource":{"resourceType":"Patient","id":"10000000","meta":{"profile":["https://simplifier.net/myhealthway/StructureDefinition/PublicPatient"]},"identifier":[{"type":{"coding":[{"system":"http://myhealthway.go.kr(가칭)","code":"MHID"}]},"system":"미정","value":"10237464"},{"type":{"coding":[{"system":"http://terminology.hl7.org/CodeSystem/v2-0203","code":"NNKOR"}]},"system":"http://mois.go.kr/rnn","value":"9206272******"}],"name":[{"text":"정한나"}]}},"payor":[{"reference":"Organization/17100002","resource":{"resourceType":"Organization","id":"17100002","type":[{"coding":[{"system":"미정","code":"미정","display":"약국"}],"text":"약국"}],"name":"포도약국","address":[{"text":"마포구 마포대로"}]}}]}],"status":"active","type":{"coding":[{"system":"http://terminology.hl7.org/CodeSystem/claim-type","code":"pharmacy","display":"pharmacy"}]},"use":"claim","patient":{"reference":"Patient/10000000","resource":{"resourceType":"Patient","id":"10000000","meta":{"profile":["https://simplifier.net/myhealthway/StructureDefinition/PublicPatient"]},"identifier":[{"type":{"coding":[{"system":"http://myhealthway.go.kr(가칭)","code":"MHID"}]},"system":"미정","value":"10237464"},{"type":{"coding":[{"system":"http://terminology.hl7.org/CodeSystem/v2-0203","code":"NNKOR"}]},"system":"http://mois.go.kr/rnn","value":"9206272******"}],"name":[{"text":"정한나"}]}},"billablePeriod":{"start":"2024-11-06"},"created":"2024-11-06","insurer":{"reference":"Organization/17100001","resource":{"resourceType":"Organization","id":"17100001","type":[{"coding":[{"system":"미정","code":"미정","display":"보험사"}],"text":"보험사"}],"name":"국민건강보험공단"}},"provider":{"reference":"Organization/17100002","resource":{"resourceType":"Organization","id":"17100002","type":[{"coding":[{"system":"미정","code":"미정","display":"약국"}],"text":"약국"}],"name":"포도약국","address":[{"text":"마포구 마포대로"}]}},"outcome":"complete","supportingInfo":[{"sequence":1,"category":{"coding":[{"system":"http://terminology.hl7.org/CodeSystem/claiminformationcategory","code":"hospitalized","display":"Hosptialized"}]},"code":{"text":"1"}},{"sequence":2,"category":{"coding":[{"system":"http://terminology.hl7.org/CodeSystem/claiminformationcategory","code":"related","display":"Related Service"}]},"code":{"text":"1"}},{"sequence":3,"category":{"coding":[{"system":"http://terminology.hl7.org/CodeSystem/claiminformationcategory","code":"other","display":"Other"}]},"code":{"text":"3"}}],"total":[{"category":{"coding":[{"system":"http://terminology.hl7.org/CodeSystem/adjudication","code":"copay","display":"CoPay"}]},"amount":{"value":3600,"currency":"KRW"}},{"category":{"coding":[{"system":"http://terminology.hl7.org/CodeSystem/adjudication","code":"benefit","display":"Benefit Amount"}]},"amount":{"value":8570,"currency":"KRW"}}]}},{"resource":{"resourceType":"ExplanationOfBenefit","id":"17000010","meta":{"profile":["https://simplifier.net/myhealthway/StructureDefinition/PublicExplanationOfBenefit"]},"identifier":[{"system":"리소스식별자(미정)","value":"b880521b-ce5b-45bf-8f7c-f35d1950c1fe"}],"contained":[{"resourceType":"Organization","id":"17100001","type":[{"coding":[{"system":"미정","code":"미정","display":"보험사"}],"text":"보험사"}],"name":"국민건강보험공단"},{"resourceType":"Organization","id":"17100002","type":[{"coding":[{"system":"미정","code":"미정","display":"병의원"}],"text":"병의원"}],"name":"다웰내과의원","address":[{"text":"마포구 큰우물로"}]},{"resourceType":"Coverage","id":"17300001","status":"active","beneficiary":{"reference":"Patient/10000000","resource":{"resourceType":"Patient","id":"10000000","meta":{"profile":["https://simplifier.net/myhealthway/StructureDefinition/PublicPatient"]},"identifier":[{"type":{"coding":[{"system":"http://myhealthway.go.kr(가칭)","code":"MHID"}]},"system":"미정","value":"10237464"},{"type":{"coding":[{"system":"http://terminology.hl7.org/CodeSystem/v2-0203","code":"NNKOR"}]},"system":"http://mois.go.kr/rnn","value":"9206272******"}],"name":[{"text":"정한나"}]}},"payor":[{"reference":"Organization/17100002","resource":{"resourceType":"Organization","id":"17100002","type":[{"coding":[{"system":"미정","code":"미정","display":"병의원"}],"text":"병의원"}],"name":"다웰내과의원","address":[{"text":"마포구 큰우물로"}]}}]}],"status":"active","type":{"coding":[{"system":"http://terminology.hl7.org/CodeSystem/claim-type","code":"institutional","display":"institutional"}]},"use":"claim","patient":{"reference":"Patient/10000000","resource":{"resourceType":"Patient","id":"10000000","meta":{"profile":["https://simplifier.net/myhealthway/StructureDefinition/PublicPatient"]},"identifier":[{"type":{"coding":[{"system":"http://myhealthway.go.kr(가칭)","code":"MHID"}]},"system":"미정","value":"10237464"},{"type":{"coding":[{"system":"http://terminology.hl7.org/CodeSystem/v2-0203","code":"NNKOR"}]},"system":"http://mois.go.kr/rnn","value":"9206272******"}],"name":[{"text":"정한나"}]}},"billablePeriod":{"start":"2024-08-06"},"created":"2024-08-06","insurer":{"reference":"Organization/17100001","resource":{"resourceType":"Organization","id":"17100001","type":[{"coding":[{"system":"미정","code":"미정","display":"보험사"}],"text":"보험사"}],"name":"국민건강보험공단"}},"provider":{"reference":"Organization/17100002","resource":{"resourceType":"Organization","id":"17100002","type":[{"coding":[{"system":"미정","code":"미정","display":"병의원"}],"text":"병의원"}],"name":"다웰내과의원","address":[{"text":"마포구 큰우물로"}]}},"outcome":"complete","supportingInfo":[{"sequence":1,"category":{"coding":[{"system":"http://terminology.hl7.org/CodeSystem/claiminformationcategory","code":"hospitalized","display":"Hosptialized"}]},"code":{"text":"1"}},{"sequence":2,"category":{"coding":[{"system":"http://terminology.hl7.org/CodeSystem/claiminformationcategory","code":"related","display":"Related Service"}]},"code":{"text":"1"}},{"sequence":3,"category":{"coding":[{"system":"http://terminology.hl7.org/CodeSystem/claiminformationcategory","code":"other","display":"Other"}]},"code":{"text":"1"}}],"total":[{"category":{"coding":[{"system":"http://terminology.hl7.org/CodeSystem/adjudication","code":"copay","display":"CoPay"}]},"amount":{"value":6900,"currency":"KRW"}},{"category":{"coding":[{"system":"http://terminology.hl7.org/CodeSystem/adjudication","code":"benefit","display":"Benefit Amount"}]},"amount":{"value":16410,"currency":"KRW"}}]}},{"resource":{"resourceType":"ExplanationOfBenefit","id":"17000009","meta":{"profile":["https://simplifier.net/myhealthway/StructureDefinition/PublicExplanationOfBenefit"]},"identifier":[{"system":"리소스식별자(미정)","value":"9ce5f886-f88f-43d0-b89a-49b0551b9665"}],"contained":[{"resourceType":"Organization","id":"17100001","type":[{"coding":[{"system":"미정","code":"미정","display":"보험사"}],"text":"보험사"}],"name":"국민건강보험공단"},{"resourceType":"Organization","id":"17100002","type":[{"coding":[{"system":"미정","code":"미정","display":"약국"}],"text":"약국"}],"name":"마포온누리약국","address":[{"text":"마포구 큰우물로"}]},{"resourceType":"Coverage","id":"17300001","status":"active","beneficiary":{"reference":"Patient/10000000","resource":{"resourceType":"Patient","id":"10000000","meta":{"profile":["https://simplifier.net/myhealthway/StructureDefinition/PublicPatient"]},"identifier":[{"type":{"coding":[{"system":"http://myhealthway.go.kr(가칭)","code":"MHID"}]},"system":"미정","value":"10237464"},{"type":{"coding":[{"system":"http://terminology.hl7.org/CodeSystem/v2-0203","code":"NNKOR"}]},"system":"http://mois.go.kr/rnn","value":"9206272******"}],"name":[{"text":"정한나"}]}},"payor":[{"reference":"Organization/17100002","resource":{"resourceType":"Organization","id":"17100002","type":[{"coding":[{"system":"미정","code":"미정","display":"약국"}],"text":"약국"}],"name":"마포온누리약국","address":[{"text":"마포구 큰우물로"}]}}]}],"status":"active","type":{"coding":[{"system":"http://terminology.hl7.org/CodeSystem/claim-type","code":"pharmacy","display":"pharmacy"}]},"use":"claim","patient":{"reference":"Patient/10000000","resource":{"resourceType":"Patient","id":"10000000","meta":{"profile":["https://simplifier.net/myhealthway/StructureDefinition/PublicPatient"]},"identifier":[{"type":{"coding":[{"system":"http://myhealthway.go.kr(가칭)","code":"MHID"}]},"system":"미정","value":"10237464"},{"type":{"coding":[{"system":"http://terminology.hl7.org/CodeSystem/v2-0203","code":"NNKOR"}]},"system":"http://mois.go.kr/rnn","value":"9206272******"}],"name":[{"text":"정한나"}]}},"billablePeriod":{"start":"2024-08-06"},"created":"2024-08-06","insurer":{"reference":"Organization/17100001","resource":{"resourceType":"Organization","id":"17100001","type":[{"coding":[{"system":"미정","code":"미정","display":"보험사"}],"text":"보험사"}],"name":"국민건강보험공단"}},"provider":{"reference":"Organization/17100002","resource":{"resourceType":"Organization","id":"17100002","type":[{"coding":[{"system":"미정","code":"미정","display":"약국"}],"text":"약국"}],"name":"마포온누리약국","address":[{"text":"마포구 큰우물로"}]}},"outcome":"complete","supportingInfo":[{"sequence":1,"category":{"coding":[{"system":"http://terminology.hl7.org/CodeSystem/claiminformationcategory","code":"hospitalized","display":"Hosptialized"}]},"code":{"text":"1"}},{"sequence":2,"category":{"coding":[{"system":"http://terminology.hl7.org/CodeSystem/claiminformationcategory","code":"related","display":"Related Service"}]},"code":{"text":"1"}},{"sequence":3,"category":{"coding":[{"system":"http://terminology.hl7.org/CodeSystem/claiminformationcategory","code":"other","display":"Other"}]},"code":{"text":"3"}}],"total":[{"category":{"coding":[{"system":"http://terminology.hl7.org/CodeSystem/adjudication","code":"copay","display":"CoPay"}]},"amount":{"value":3600,"currency":"KRW"}},{"category":{"coding":[{"system":"http://terminology.hl7.org/CodeSystem/adjudication","code":"benefit","display":"Benefit Amount"}]},"amount":{"value":8510,"currency":"KRW"}}]}},{"resource":{"resourceType":"ExplanationOfBenefit","id":"17000011","meta":{"profile":["https://simplifier.net/myhealthway/StructureDefinition/PublicExplanationOfBenefit"]},"identifier":[{"system":"리소스식별자(미정)","value":"6d04a2f6-8fdf-4930-bd60-0529c4c720c6"}],"contained":[{"resourceType":"Organization","id":"17100001","type":[{"coding":[{"system":"미정","code":"미정","display":"보험사"}],"text":"보험사"}],"name":"국민건강보험공단"},{"resourceType":"Organization","id":"17100002","type":[{"coding":[{"system":"미정","code":"미정","display":"병의원"}],"text":"병의원"}],"name":"참길이비인후과의원","address":[{"text":"마포구 마포대로"}]},{"resourceType":"Coverage","id":"17300001","status":"active","beneficiary":{"reference":"Patient/10000000","resource":{"resourceType":"Patient","id":"10000000","meta":{"profile":["https://simplifier.net/myhealthway/StructureDefinition/PublicPatient"]},"identifier":[{"type":{"coding":[{"system":"http://myhealthway.go.kr(가칭)","code":"MHID"}]},"system":"미정","value":"10237464"},{"type":{"coding":[{"system":"http://terminology.hl7.org/CodeSystem/v2-0203","code":"NNKOR"}]},"system":"http://mois.go.kr/rnn","value":"9206272******"}],"name":[{"text":"정한나"}]}},"payor":[{"reference":"Organization/17100002","resource":{"resourceType":"Organization","id":"17100002","type":[{"coding":[{"system":"미정","code":"미정","display":"병의원"}],"text":"병의원"}],"name":"참길이비인후과의원","address":[{"text":"마포구 마포대로"}]}}]}],"status":"active","type":{"coding":[{"system":"http://terminology.hl7.org/CodeSystem/claim-type","code":"institutional","display":"institutional"}]},"use":"claim","patient":{"reference":"Patient/10000000","resource":{"resourceType":"Patient","id":"10000000","meta":{"profile":["https://simplifier.net/myhealthway/StructureDefinition/PublicPatient"]},"identifier":[{"type":{"coding":[{"system":"http://myhealthway.go.kr(가칭)","code":"MHID"}]},"system":"미정","value":"10237464"},{"type":{"coding":[{"system":"http://terminology.hl7.org/CodeSystem/v2-0203","code":"NNKOR"}]},"system":"http://mois.go.kr/rnn","value":"9206272******"}],"name":[{"text":"정한나"}]}},"billablePeriod":{"start":"2024-07-22"},"created":"2024-07-22","insurer":{"reference":"Organization/17100001","resource":{"resourceType":"Organization","id":"17100001","type":[{"coding":[{"system":"미정","code":"미정","display":"보험사"}],"text":"보험사"}],"name":"국민건강보험공단"}},"provider":{"reference":"Organization/17100002","resource":{"resourceType":"Organization","id":"17100002","type":[{"coding":[{"system":"미정","code":"미정","display":"병의원"}],"text":"병의원"}],"name":"참길이비인후과의원","address":[{"text":"마포구 마포대로"}]}},"outcome":"complete","supportingInfo":[{"sequence":1,"category":{"coding":[{"system":"http://terminology.hl7.org/CodeSystem/claiminformationcategory","code":"hospitalized","display":"Hosptialized"}]},"code":{"text":"1"}},{"sequence":2,"category":{"coding":[{"system":"http://terminology.hl7.org/CodeSystem/claiminformationcategory","code":"related","display":"Related Service"}]},"code":{"text":"1"}},{"sequence":3,"category":{"coding":[{"system":"http://terminology.hl7.org/CodeSystem/claiminformationcategory","code":"other","display":"Other"}]},"code":{"text":"1"}}],"total":[{"category":{"coding":[{"system":"http://terminology.hl7.org/CodeSystem/adjudication","code":"copay","display":"CoPay"}]},"amount":{"value":5900,"currency":"KRW"}},{"category":{"coding":[{"system":"http://terminology.hl7.org/CodeSystem/adjudication","code":"benefit","display":"Benefit Amount"}]},"amount":{"value":13980,"currency":"KRW"}}]}},{"resource":{"resourceType":"ExplanationOfBenefit","id":"17000012","meta":{"profile":["https://simplifier.net/myhealthway/StructureDefinition/PublicExplanationOfBenefit"]},"identifier":[{"system":"리소스식별자(미정)","value":"e20cb773-0b88-4dea-aa57-a3a11b5ae723"}],"contained":[{"resourceType":"Organization","id":"17100001","type":[{"coding":[{"system":"미정","code":"미정","display":"보험사"}],"text":"보험사"}],"name":"국민건강보험공단"},{"resourceType":"Organization","id":"17100002","type":[{"coding":[{"system":"미정","code":"미정","display":"약국"}],"text":"약국"}],"name":"포도약국","address":[{"text":"마포구 마포대로"}]},{"resourceType":"Coverage","id":"17300001","status":"active","beneficiary":{"reference":"Patient/10000000","resource":{"resourceType":"Patient","id":"10000000","meta":{"profile":["https://simplifier.net/myhealthway/StructureDefinition/PublicPatient"]},"identifier":[{"type":{"coding":[{"system":"http://myhealthway.go.kr(가칭)","code":"MHID"}]},"system":"미정","value":"10237464"},{"type":{"coding":[{"system":"http://terminology.hl7.org/CodeSystem/v2-0203","code":"NNKOR"}]},"system":"http://mois.go.kr/rnn","value":"9206272******"}],"name":[{"text":"정한나"}]}},"payor":[{"reference":"Organization/17100002","resource":{"resourceType":"Organization","id":"17100002","type":[{"coding":[{"system":"미정","code":"미정","display":"약국"}],"text":"약국"}],"name":"포도약국","address":[{"text":"마포구 마포대로"}]}}]}],"status":"active","type":{"coding":[{"system":"http://terminology.hl7.org/CodeSystem/claim-type","code":"pharmacy","display":"pharmacy"}]},"use":"claim","patient":{"reference":"Patient/10000000","resource":{"resourceType":"Patient","id":"10000000","meta":{"profile":["https://simplifier.net/myhealthway/StructureDefinition/PublicPatient"]},"identifier":[{"type":{"coding":[{"system":"http://myhealthway.go.kr(가칭)","code":"MHID"}]},"system":"미정","value":"10237464"},{"type":{"coding":[{"system":"http://terminology.hl7.org/CodeSystem/v2-0203","code":"NNKOR"}]},"system":"http://mois.go.kr/rnn","value":"9206272******"}],"name":[{"text":"정한나"}]}},"billablePeriod":{"start":"2024-07-22"},"created":"2024-07-22","insurer":{"reference":"Organization/17100001","resource":{"resourceType":"Organization","id":"17100001","type":[{"coding":[{"system":"미정","code":"미정","display":"보험사"}],"text":"보험사"}],"name":"국민건강보험공단"}},"provider":{"reference":"Organization/17100002","resource":{"resourceType":"Organization","id":"17100002","type":[{"coding":[{"system":"미정","code":"미정","display":"약국"}],"text":"약국"}],"name":"포도약국","address":[{"text":"마포구 마포대로"}]}},"outcome":"complete","supportingInfo":[{"sequence":1,"category":{"coding":[{"system":"http://terminology.hl7.org/CodeSystem/claiminformationcategory","code":"hospitalized","display":"Hosptialized"}]},"code":{"text":"1"}},{"sequence":2,"category":{"coding":[{"system":"http://terminology.hl7.org/CodeSystem/claiminformationcategory","code":"related","display":"Related Service"}]},"code":{"text":"1"}},{"sequence":3,"category":{"coding":[{"system":"http://terminology.hl7.org/CodeSystem/claiminformationcategory","code":"other","display":"Other"}]},"code":{"text":"3"}}],"total":[{"category":{"coding":[{"system":"http://terminology.hl7.org/CodeSystem/adjudication","code":"copay","display":"CoPay"}]},"amount":{"value":3400,"currency":"KRW"}},{"category":{"coding":[{"system":"http://terminology.hl7.org/CodeSystem/adjudication","code":"benefit","display":"Benefit Amount"}]},"amount":{"value":8060,"currency":"KRW"}}]}},{"resource":{"resourceType":"ExplanationOfBenefit","id":"17000013","meta":{"profile":["https://simplifier.net/myhealthway/StructureDefinition/PublicExplanationOfBenefit"]},"identifier":[{"system":"리소스식별자(미정)","value":"64cbca63-fa5f-41f9-9e92-b2876bf35f69"}],"contained":[{"resourceType":"Organization","id":"17100001","type":[{"coding":[{"system":"미정","code":"미정","display":"보험사"}],"text":"보험사"}],"name":"국민건강보험공단"},{"resourceType":"Organization","id":"17100002","type":[{"coding":[{"system":"미정","code":"미정","display":"병의원"}],"text":"병의원"}],"name":"예당한의원","address":[{"text":"마포구 도화길"}]},{"resourceType":"Coverage","id":"17300001","status":"active","beneficiary":{"reference":"Patient/10000000","resource":{"resourceType":"Patient","id":"10000000","meta":{"profile":["https://simplifier.net/myhealthway/StructureDefinition/PublicPatient"]},"identifier":[{"type":{"coding":[{"system":"http://myhealthway.go.kr(가칭)","code":"MHID"}]},"system":"미정","value":"10237464"},{"type":{"coding":[{"system":"http://terminology.hl7.org/CodeSystem/v2-0203","code":"NNKOR"}]},"system":"http://mois.go.kr/rnn","value":"9206272******"}],"name":[{"text":"정한나"}]}},"payor":[{"reference":"Organization/17100002","resource":{"resourceType":"Organization","id":"17100002","type":[{"coding":[{"system":"미정","code":"미정","display":"병의원"}],"text":"병의원"}],"name":"예당한의원","address":[{"text":"마포구 도화길"}]}}]}],"status":"active","type":{"coding":[{"system":"http://terminology.hl7.org/CodeSystem/claim-type","code":"institutional","display":"institutional"}]},"use":"claim","patient":{"reference":"Patient/10000000","resource":{"resourceType":"Patient","id":"10000000","meta":{"profile":["https://simplifier.net/myhealthway/StructureDefinition/PublicPatient"]},"identifier":[{"type":{"coding":[{"system":"http://myhealthway.go.kr(가칭)","code":"MHID"}]},"system":"미정","value":"10237464"},{"type":{"coding":[{"system":"http://terminology.hl7.org/CodeSystem/v2-0203","code":"NNKOR"}]},"system":"http://mois.go.kr/rnn","value":"9206272******"}],"name":[{"text":"정한나"}]}},"billablePeriod":{"start":"2024-07-17"},"created":"2024-07-17","insurer":{"reference":"Organization/17100001","resource":{"resourceType":"Organization","id":"17100001","type":[{"coding":[{"system":"미정","code":"미정","display":"보험사"}],"text":"보험사"}],"name":"국민건강보험공단"}},"provider":{"reference":"Organization/17100002","resource":{"resourceType":"Organization","id":"17100002","type":[{"coding":[{"system":"미정","code":"미정","display":"병의원"}],"text":"병의원"}],"name":"예당한의원","address":[{"text":"마포구 도화길"}]}},"outcome":"complete","supportingInfo":[{"sequence":1,"category":{"coding":[{"system":"http://terminology.hl7.org/CodeSystem/claiminformationcategory","code":"hospitalized","display":"Hosptialized"}]},"code":{"text":"1"}},{"sequence":2,"category":{"coding":[{"system":"http://terminology.hl7.org/CodeSystem/claiminformationcategory","code":"related","display":"Related Service"}]},"code":{"text":"0"}},{"sequence":3,"category":{"coding":[{"system":"http://terminology.hl7.org/CodeSystem/claiminformationcategory","code":"other","display":"Other"}]},"code":{"text":"1"}}],"total":[{"category":{"coding":[{"system":"http://terminology.hl7.org/CodeSystem/adjudication","code":"copay","display":"CoPay"}]},"amount":{"value":12000,"currency":"KRW"}},{"category":{"coding":[{"system":"http://terminology.hl7.org/CodeSystem/adjudication","code":"benefit","display":"Benefit Amount"}]},"amount":{"value":28180,"currency":"KRW"}}]}},{"resource":{"resourceType":"ExplanationOfBenefit","id":"17000014","meta":{"profile":["https://simplifier.net/myhealthway/StructureDefinition/PublicExplanationOfBenefit"]},"identifier":[{"system":"리소스식별자(미정)","value":"84ba3779-5772-4c44-85f9-ca9b5fde17f3"}],"contained":[{"resourceType":"Organization","id":"17100001","type":[{"coding":[{"system":"미정","code":"미정","display":"보험사"}],"text":"보험사"}],"name":"국민건강보험공단"},{"resourceType":"Organization","id":"17100002","type":[{"coding":[{"system":"미정","code":"미정","display":"병의원"}],"text":"병의원"}],"name":"예당한의원","address":[{"text":"마포구 도화길"}]},{"resourceType":"Coverage","id":"17300001","status":"active","beneficiary":{"reference":"Patient/10000000","resource":{"resourceType":"Patient","id":"10000000","meta":{"profile":["https://simplifier.net/myhealthway/StructureDefinition/PublicPatient"]},"identifier":[{"type":{"coding":[{"system":"http://myhealthway.go.kr(가칭)","code":"MHID"}]},"system":"미정","value":"10237464"},{"type":{"coding":[{"system":"http://terminology.hl7.org/CodeSystem/v2-0203","code":"NNKOR"}]},"system":"http://mois.go.kr/rnn","value":"9206272******"}],"name":[{"text":"정한나"}]}},"payor":[{"reference":"Organization/17100002","resource":{"resourceType":"Organization","id":"17100002","type":[{"coding":[{"system":"미정","code":"미정","display":"병의원"}],"text":"병의원"}],"name":"예당한의원","address":[{"text":"마포구 도화길"}]}}]}],"status":"active","type":{"coding":[{"system":"http://terminology.hl7.org/CodeSystem/claim-type","code":"institutional","display":"institutional"}]},"use":"claim","patient":{"reference":"Patient/10000000","resource":{"resourceType":"Patient","id":"10000000","meta":{"profile":["https://simplifier.net/myhealthway/StructureDefinition/PublicPatient"]},"identifier":[{"type":{"coding":[{"system":"http://myhealthway.go.kr(가칭)","code":"MHID"}]},"system":"미정","value":"10237464"},{"type":{"coding":[{"system":"http://terminology.hl7.org/CodeSystem/v2-0203","code":"NNKOR"}]},"system":"http://mois.go.kr/rnn","value":"9206272******"}],"name":[{"text":"정한나"}]}},"billablePeriod":{"start":"2024-07-15"},"created":"2024-07-15","insurer":{"reference":"Organization/17100001","resource":{"resourceType":"Organization","id":"17100001","type":[{"coding":[{"system":"미정","code":"미정","display":"보험사"}],"text":"보험사"}],"name":"국민건강보험공단"}},"provider":{"reference":"Organization/17100002","resource":{"resourceType":"Organization","id":"17100002","type":[{"coding":[{"system":"미정","code":"미정","display":"병의원"}],"text":"병의원"}],"name":"예당한의원","address":[{"text":"마포구 도화길"}]}},"outcome":"complete","supportingInfo":[{"sequence":1,"category":{"coding":[{"system":"http://terminology.hl7.org/CodeSystem/claiminformationcategory","code":"hospitalized","display":"Hosptialized"}]},"code":{"text":"1"}},{"sequence":2,"category":{"coding":[{"system":"http://terminology.hl7.org/CodeSystem/claiminformationcategory","code":"related","display":"Related Service"}]},"code":{"text":"0"}},{"sequence":3,"category":{"coding":[{"system":"http://terminology.hl7.org/CodeSystem/claiminformationcategory","code":"other","display":"Other"}]},"code":{"text":"1"}}],"total":[{"category":{"coding":[{"system":"http://terminology.hl7.org/CodeSystem/adjudication","code":"copay","display":"CoPay"}]},"amount":{"value":16300,"currency":"KRW"}},{"category":{"coding":[{"system":"http://terminology.hl7.org/CodeSystem/adjudication","code":"benefit","display":"Benefit Amount"}]},"amount":{"value":38310,"currency":"KRW"}}]}},{"resource":{"resourceType":"ExplanationOfBenefit","id":"17000015","meta":{"profile":["https://simplifier.net/myhealthway/StructureDefinition/PublicExplanationOfBenefit"]},"identifier":[{"system":"리소스식별자(미정)","value":"b87b5f66-4350-4bf7-aa47-30617075dbac"}],"contained":[{"resourceType":"Organization","id":"17100001","type":[{"coding":[{"system":"미정","code":"미정","display":"보험사"}],"text":"보험사"}],"name":"국민건강보험공단"},{"resourceType":"Organization","id":"17100002","type":[{"coding":[{"system":"미정","code":"미정","display":"병의원"}],"text":"병의원"}],"name":"허동식유외과의원","address":[{"text":"마포구 마포대로"}]},{"resourceType":"Coverage","id":"17300001","status":"active","beneficiary":{"reference":"Patient/10000000","resource":{"resourceType":"Patient","id":"10000000","meta":{"profile":["https://simplifier.net/myhealthway/StructureDefinition/PublicPatient"]},"identifier":[{"type":{"coding":[{"system":"http://myhealthway.go.kr(가칭)","code":"MHID"}]},"system":"미정","value":"10237464"},{"type":{"coding":[{"system":"http://terminology.hl7.org/CodeSystem/v2-0203","code":"NNKOR"}]},"system":"http://mois.go.kr/rnn","value":"9206272******"}],"name":[{"text":"정한나"}]}},"payor":[{"reference":"Organization/17100002","resource":{"resourceType":"Organization","id":"17100002","type":[{"coding":[{"system":"미정","code":"미정","display":"병의원"}],"text":"병의원"}],"name":"허동식유외과의원","address":[{"text":"마포구 마포대로"}]}}]}],"status":"active","type":{"coding":[{"system":"http://terminology.hl7.org/CodeSystem/claim-type","code":"institutional","display":"institutional"}]},"use":"claim","patient":{"reference":"Patient/10000000","resource":{"resourceType":"Patient","id":"10000000","meta":{"profile":["https://simplifier.net/myhealthway/StructureDefinition/PublicPatient"]},"identifier":[{"type":{"coding":[{"system":"http://myhealthway.go.kr(가칭)","code":"MHID"}]},"system":"미정","value":"10237464"},{"type":{"coding":[{"system":"http://terminology.hl7.org/CodeSystem/v2-0203","code":"NNKOR"}]},"system":"http://mois.go.kr/rnn","value":"9206272******"}],"name":[{"text":"정한나"}]}},"billablePeriod":{"start":"2024-06-07"},"created":"2024-06-07","insurer":{"reference":"Organization/17100001","resource":{"resourceType":"Organization","id":"17100001","type":[{"coding":[{"system":"미정","code":"미정","display":"보험사"}],"text":"보험사"}],"name":"국민건강보험공단"}},"provider":{"reference":"Organization/17100002","resource":{"resourceType":"Organization","id":"17100002","type":[{"coding":[{"system":"미정","code":"미정","display":"병의원"}],"text":"병의원"}],"name":"허동식유외과의원","address":[{"text":"마포구 마포대로"}]}},"outcome":"complete","supportingInfo":[{"sequence":1,"category":{"coding":[{"system":"http://terminology.hl7.org/CodeSystem/claiminformationcategory","code":"hospitalized","display":"Hosptialized"}]},"code":{"text":"1"}},{"sequence":2,"category":{"coding":[{"system":"http://terminology.hl7.org/CodeSystem/claiminformationcategory","code":"related","display":"Related Service"}]},"code":{"text":"0"}},{"sequence":3,"category":{"coding":[{"system":"http://terminology.hl7.org/CodeSystem/claiminformationcategory","code":"other","display":"Other"}]},"code":{"text":"1"}}],"total":[{"category":{"coding":[{"system":"http://terminology.hl7.org/CodeSystem/adjudication","code":"copay","display":"CoPay"}]},"amount":{"value":4400,"currency":"KRW"}},{"category":{"coding":[{"system":"http://terminology.hl7.org/CodeSystem/adjudication","code":"benefit","display":"Benefit Amount"}]},"amount":{"value":10460,"currency":"KRW"}}]}},{"resource":{"resourceType":"ExplanationOfBenefit","id":"17000016","meta":{"profile":["https://simplifier.net/myhealthway/StructureDefinition/PublicExplanationOfBenefit"]},"identifier":[{"system":"리소스식별자(미정)","value":"9621f7f2-6722-4741-b404-0800e93784d3"}],"contained":[{"resourceType":"Organization","id":"17100001","type":[{"coding":[{"system":"미정","code":"미정","display":"보험사"}],"text":"보험사"}],"name":"국민건강보험공단"},{"resourceType":"Organization","id":"17100002","type":[{"coding":[{"system":"미정","code":"미정","display":"병의원"}],"text":"병의원"}],"name":"허동식유외과의원","address":[{"text":"마포구 마포대로"}]},{"resourceType":"Coverage","id":"17300001","status":"active","beneficiary":{"reference":"Patient/10000000","resource":{"resourceType":"Patient","id":"10000000","meta":{"profile":["https://simplifier.net/myhealthway/StructureDefinition/PublicPatient"]},"identifier":[{"type":{"coding":[{"system":"http://myhealthway.go.kr(가칭)","code":"MHID"}]},"system":"미정","value":"10237464"},{"type":{"coding":[{"system":"http://terminology.hl7.org/CodeSystem/v2-0203","code":"NNKOR"}]},"system":"http://mois.go.kr/rnn","value":"9206272******"}],"name":[{"text":"정한나"}]}},"payor":[{"reference":"Organization/17100002","resource":{"resourceType":"Organization","id":"17100002","type":[{"coding":[{"system":"미정","code":"미정","display":"병의원"}],"text":"병의원"}],"name":"허동식유외과의원","address":[{"text":"마포구 마포대로"}]}}]}],"status":"active","type":{"coding":[{"system":"http://terminology.hl7.org/CodeSystem/claim-type","code":"institutional","display":"institutional"}]},"use":"claim","patient":{"reference":"Patient/10000000","resource":{"resourceType":"Patient","id":"10000000","meta":{"profile":["https://simplifier.net/myhealthway/StructureDefinition/PublicPatient"]},"identifier":[{"type":{"coding":[{"system":"http://myhealthway.go.kr(가칭)","code":"MHID"}]},"system":"미정","value":"10237464"},{"type":{"coding":[{"system":"http://terminology.hl7.org/CodeSystem/v2-0203","code":"NNKOR"}]},"system":"http://mois.go.kr/rnn","value":"9206272******"}],"name":[{"text":"정한나"}]}},"billablePeriod":{"start":"2024-06-05"},"created":"2024-06-05","insurer":{"reference":"Organization/17100001","resource":{"resourceType":"Organization","id":"17100001","type":[{"coding":[{"system":"미정","code":"미정","display":"보험사"}],"text":"보험사"}],"name":"국민건강보험공단"}},"provider":{"reference":"Organization/17100002","resource":{"resourceType":"Organization","id":"17100002","type":[{"coding":[{"system":"미정","code":"미정","display":"병의원"}],"text":"병의원"}],"name":"허동식유외과의원","address":[{"text":"마포구 마포대로"}]}},"outcome":"complete","supportingInfo":[{"sequence":1,"category":{"coding":[{"system":"http://terminology.hl7.org/CodeSystem/claiminformationcategory","code":"hospitalized","display":"Hosptialized"}]},"code":{"text":"1"}},{"sequence":2,"category":{"coding":[{"system":"http://terminology.hl7.org/CodeSystem/claiminformationcategory","code":"related","display":"Related Service"}]},"code":{"text":"0"}},{"sequence":3,"category":{"coding":[{"system":"http://terminology.hl7.org/CodeSystem/claiminformationcategory","code":"other","display":"Other"}]},"code":{"text":"1"}}],"total":[{"category":{"coding":[{"system":"http://terminology.hl7.org/CodeSystem/adjudication","code":"copay","display":"CoPay"}]},"amount":{"value":41300,"currency":"KRW"}},{"category":{"coding":[{"system":"http://terminology.hl7.org/CodeSystem/adjudication","code":"benefit","display":"Benefit Amount"}]},"amount":{"value":96590,"currency":"KRW"}}]}},{"resource":{"resourceType":"DiagnosticReport","id":"11000003","meta":{"profile":["https://simplifier.net/myhealthway/StructureDefinition/PublicDiagnosticReport"]},"identifier":[{"system":"리소스식별자(미정)","value":"c6988454-0c3e-44ee-8632-5776aa7d7118"}],"contained":[{"resourceType":"Organization","id":"11100001","identifier":[{"value":"11366621"}],"type":[{"coding":[{"system":"미정","code":"미정","display":"병의원"}],"text":"병의원"}],"name":"의료법인 창덕의료재단 필립의원"},{"resourceType":"Practitioner","id":"11200001","identifier":[{"system":"https://www.mohw.go.kr","value":"*****"}],"name":[{"text":"김민경"}]},{"resourceType":"Observation","id":"ESI1028","status":"final","code":{"coding":[{"system":"https://www.k-his.or.kr","code":"ESI1028","display":"종합소견_의심질환"}],"text":"종합소견_의심질환"},"effectiveDateTime":"2024-08-22","valueString":"해당사항없음"},{"resourceType":"Observation","id":"ESI1029","status":"final","code":{"coding":[{"system":"https://www.k-his.or.kr","code":"ESI1029","display":"종합소견_유질환"}],"text":"종합소견_유질환"},"effectiveDateTime":"2024-08-22","valueString":"해당사항없음"},{"resourceType":"Observation","id":"ESI1030","status":"final","code":{"coding":[{"system":"https://www.k-his.or.kr","code":"ESI1030","display":"종합소견_생활습관관리"}],"text":"종합소견_생활습관관리"},"effectiveDateTime":"2024-08-22","valueString":"*일주일에 2일 이상 신체 각 부위를 모두 포함하여 근력 운동을 수행하십시오.*신체활동량이 부족합니다. 운동을 생활화하십시오."},{"resourceType":"Observation","id":"ESI1031","status":"final","code":{"coding":[{"system":"https://www.k-his.or.kr","code":"ESI1031","display":"기타"}],"text":"기타"},"effectiveDateTime":"2024-08-22","valueString":"*꾸준한 자기 관리를 통해 현재의 건강을 유지하시기 바랍니다."},{"resourceType":"QuestionnaireResponse","id":"ESI1021","status":"completed","item":[{"linkId":"1","text":"과거병력","answer":[{"valueString":"무"}]}]},{"resourceType":"QuestionnaireResponse","id":"ESI1021-1","status":"completed","item":[{"linkId":"2","text":"생활습관","answer":[{"valueString":"□ 금연 필요 □ 절주 필요 ■ 신체활동 필요 ■ 근력운동 필요"}]}]},{"resourceType":"QuestionnaireResponse","id":"ESI1021-2","status":"completed","item":[{"linkId":"3","text":"약물치료","answer":[{"valueString":"무"}]}]},{"resourceType":"Observation","id":"11300001","status":"final","code":{"text":"문진"},"effectiveDateTime":"2024-08-22","hasMember":[{"reference":"Observation/ESI1021","resource":{"resourceType":"QuestionnaireResponse","id":"ESI1021","status":"completed","item":[{"linkId":"1","text":"과거병력","answer":[{"valueString":"무"}]}]}},{"reference":"Observation/ESI1021-1","resource":{"resourceType":"QuestionnaireResponse","id":"ESI1021-1","status":"completed","item":[{"linkId":"2","text":"생활습관","answer":[{"valueString":"□ 금연 필요 □ 절주 필요 ■ 신체활동 필요 ■ 근력운동 필요"}]}]}},{"reference":"Observation/ESI1021-2","resource":{"resourceType":"QuestionnaireResponse","id":"ESI1021-2","status":"completed","item":[{"linkId":"3","text":"약물치료","answer":[{"valueString":"무"}]}]}}]},{"resourceType":"Observation","id":"ESI1022","status":"final","code":{"coding":[{"system":"https://www.k-his.or.kr","code":"ESI1022","display":"B형감염_대상여부"}],"text":"B형감염_대상여부"},"effectiveDateTime":"2024-08-22","valueString":"비해당"},{"resourceType":"Observation","id":"ESI1023","status":"final","code":{"coding":[{"system":"https://www.k-his.or.kr","code":"ESI1023","display":"우울증_결과"}],"text":"우울증_결과"},"effectiveDateTime":"2024-08-22","valueString":"우울증상이 없음"},{"resourceType":"Observation","id":"ESI1023-1","status":"final","code":{"coding":[{"system":"https://www.k-his.or.kr","code":"ESI1023-1","display":"우울증_대상여부"}],"text":"우울증_대상여부"},"effectiveDateTime":"2024-08-22","valueString":"해당"},{"resourceType":"Observation","id":"ESI1024-1","status":"final","code":{"coding":[{"system":"https://www.k-his.or.kr","code":"ESI1024-1","display":"인지기능장애_대상여부"}],"text":"인지기능장애_대상여부"},"effectiveDateTime":"2024-08-22","valueString":"비해당"},{"resourceType":"Observation","id":"ESI1025-1","status":"final","code":{"coding":[{"system":"https://www.k-his.or.kr","code":"ESI1025-1","display":"골밀도검사_대상여부"}],"text":"골밀도검사_대상여부"},"effectiveDateTime":"2024-08-22","valueString":"비해당"},{"resourceType":"Observation","id":"ESI1026-1","status":"final","code":{"coding":[{"system":"https://www.k-his.or.kr","code":"ESI1026-1","display":"노인신체기능검사_대상여부"}],"text":"노인신체기능검사_대상여부"},"effectiveDateTime":"2024-08-22","valueString":"비해당"},{"resourceType":"QuestionnaireResponse","id":"ESI1027","status":"completed","item":[{"linkId":"1","text":"대상여부","answer":[{"valueString":"비해당"}]}]},{"resourceType":"QuestionnaireResponse","id":"ESI1027-2","status":"completed","item":[{"linkId":"3","text":"예방접종","answer":[{"valueString":"□ 인플루엔자 접종 필요 □ 폐렴구균 접종 필요 □ 접종 필요 없음"}]}]},{"resourceType":"Observation","id":"11300002","status":"final","code":{"text":"노인기능평가문진"},"effectiveDateTime":"2024-08-22","hasMember":[{"reference":"Observation/ESI1027","resource":{"resourceType":"QuestionnaireResponse","id":"ESI1027","status":"completed","item":[{"linkId":"1","text":"대상여부","answer":[{"valueString":"비해당"}]}]}},{"reference":"Observation/ESI1027-2","resource":{"resourceType":"QuestionnaireResponse","id":"ESI1027-2","status":"completed","item":[{"linkId":"3","text":"예방접종","answer":[{"valueString":"□ 인플루엔자 접종 필요 □ 폐렴구균 접종 필요 □ 접종 필요 없음"}]}]}}]},{"resourceType":"Observation","id":"ESI1001","status":"final","code":{"coding":[{"system":"https://www.k-his.or.kr","code":"ESI1001","display":"키"}],"text":"키"},"effectiveDateTime":"2024-08-22","valueString":"1651"},{"resourceType":"Observation","id":"ESI1002","status":"final","code":{"coding":[{"system":"https://www.k-his.or.kr","code":"ESI1002","display":"몸무게"}],"text":"몸무게"},"effectiveDateTime":"2024-08-22","valueString":"0559"},{"resourceType":"Observation","id":"ESI1003","status":"final","code":{"coding":[{"system":"https://www.k-his.or.kr","code":"ESI1003","display":"체질량지수"}],"text":"체질량지수"},"effectiveDateTime":"2024-08-22","valueString":"20.5 정상"},{"resourceType":"Observation","id":"ESI1004","status":"final","code":{"coding":[{"system":"https://www.k-his.or.kr","code":"ESI1004","display":"허리둘레"}],"text":"허리둘레"},"effectiveDateTime":"2024-08-22","valueString":"70 정상"},{"resourceType":"Observation","id":"ESI1005","status":"final","code":{"coding":[{"system":"https://www.k-his.or.kr","code":"ESI1005","display":"시력_좌"}],"text":"시력_좌"},"effectiveDateTime":"2024-08-22","valueString":"12"},{"resourceType":"Observation","id":"ESI1005-1","status":"final","code":{"coding":[{"system":"https://www.k-his.or.kr","code":"ESI1005-1","display":"시력_우"}],"text":"시력_우"},"effectiveDateTime":"2024-08-22","valueString":"07"},{"resourceType":"Observation","id":"ESI1006","status":"final","code":{"coding":[{"system":"https://www.k-his.or.kr","code":"ESI1006","display":"청력_좌"}],"text":"청력_좌"},"effectiveDateTime":"2024-08-22","valueString":"정상"},{"resourceType":"Observation","id":"ESI1006-1","status":"final","code":{"coding":[{"system":"https://www.k-his.or.kr","code":"ESI1006-1","display":"청_우력"}],"text":"청_우력"},"effectiveDateTime":"2024-08-22","valueString":"정상"},{"resourceType":"Observation","id":"ESI1007","status":"final","code":{"coding":[{"system":"https://www.k-his.or.kr","code":"ESI1007","display":"혈압"}],"text":"혈압"},"effectiveDateTime":"2024-08-22","valueString":"111/78 정상"},{"resourceType":"Observation","id":"ESI1007-1","status":"final","code":{"coding":[{"system":"https://www.k-his.or.kr","code":"ESI1007-1","display":"*혈압_수축기"}],"text":"*혈압_수축기"},"effectiveDateTime":"2024-08-22","valueString":"111"},{"resourceType":"Observation","id":"ESI1007-2","status":"final","code":{"coding":[{"system":"https://www.k-his.or.kr","code":"ESI1007-2","display":"*혈압_이완기"}],"text":"*혈압_이완기"},"effectiveDateTime":"2024-08-22","valueString":"78"},{"resourceType":"Observation","id":"ESI1008","status":"final","code":{"coding":[{"system":"https://www.k-his.or.kr","code":"ESI1008","display":"혈색소"}],"text":"혈색소"},"effectiveDateTime":"2024-08-22","valueString":"12.9 정상"},{"resourceType":"Observation","id":"ESI1009","status":"final","code":{"coding":[{"system":"https://www.k-his.or.kr","code":"ESI1009","display":"공복혈당"}],"text":"공복혈당"},"effectiveDateTime":"2024-08-22","valueString":"93 정상"},{"resourceType":"Observation","id":"ESI1010","status":"final","code":{"coding":[{"system":"https://www.k-his.or.kr","code":"ESI1010","display":"총콜레스테롤"}],"text":"총콜레스테롤"},"effectiveDateTime":"2024-08-22","valueString":"0"},{"resourceType":"Observation","id":"ESI1011","status":"final","code":{"coding":[{"system":"https://www.k-his.or.kr","code":"ESI1011","display":"고밀도콜레스테롤"}],"text":"고밀도콜레스테롤"},"effectiveDateTime":"2024-08-22","valueString":"0"},{"resourceType":"Observation","id":"ESI1012","status":"final","code":{"coding":[{"system":"https://www.k-his.or.kr","code":"ESI1012","display":"중성지방"}],"text":"중성지방"},"effectiveDateTime":"2024-08-22","valueString":"0"},{"resourceType":"Observation","id":"ESI1013","status":"final","code":{"coding":[{"system":"https://www.k-his.or.kr","code":"ESI1013","display":"저밀도콜레스테롤"}],"text":"저밀도콜레스테롤"},"effectiveDateTime":"2024-08-22","valueString":"0"},{"resourceType":"Observation","id":"ESI1014","status":"final","code":{"coding":[{"system":"https://www.k-his.or.kr","code":"ESI1014","display":"혈청크레아티닌"}],"text":"혈청크레아티닌"},"effectiveDateTime":"2024-08-22","valueString":"0.7"},{"resourceType":"Observation","id":"ESI1015","status":"final","code":{"coding":[{"system":"https://www.k-his.or.kr","code":"ESI1015","display":"신사구체여과율(e-GFR)"}],"text":"신사구체여과율(e-GFR)"},"effectiveDateTime":"2024-08-22","valueString":"115"},{"resourceType":"Observation","id":"ESI1016","status":"final","code":{"coding":[{"system":"https://www.k-his.or.kr","code":"ESI1016","display":"AST(SGOT)"}],"text":"AST(SGOT)"},"effectiveDateTime":"2024-08-22","valueString":"18"},{"resourceType":"Observation","id":"ESI1017","status":"final","code":{"coding":[{"system":"https://www.k-his.or.kr","code":"ESI1017","display":"ALT(SGPT)"}],"text":"ALT(SGPT)"},"effectiveDateTime":"2024-08-22","valueString":"14"},{"resourceType":"Observation","id":"ESI1018","status":"final","code":{"coding":[{"system":"https://www.k-his.or.kr","code":"ESI1018","display":"감마지티피(y-GTP)"}],"text":"감마지티피(y-GTP)"},"effectiveDateTime":"2024-08-22","valueString":"20"},{"resourceType":"Observation","id":"ESI1019","status":"final","code":{"coding":[{"system":"https://www.k-his.or.kr","code":"ESI1019","display":"요단백"}],"text":"요단백"},"effectiveDateTime":"2024-08-22","valueString":"정상"},{"resourceType":"Observation","id":"ESI1020","status":"final","code":{"coding":[{"system":"https://www.k-his.or.kr","code":"ESI1020","display":"흉부촬영"}],"text":"흉부촬영"},"effectiveDateTime":"2024-08-22","valueString":"정상"}],"status":"final","code":{"coding":[{"system":"코드체계(미정)","code":"EXSRRL(미정)","display":"EXSRRL(미정)"}]},"subject":{"reference":"Patient/10000000","resource":{"resourceType":"Patient","id":"10000000","meta":{"profile":["https://simplifier.net/myhealthway/StructureDefinition/PublicPatient"]},"identifier":[{"type":{"coding":[{"system":"http://myhealthway.go.kr(가칭)","code":"MHID"}]},"system":"미정","value":"10237464"},{"type":{"coding":[{"system":"http://terminology.hl7.org/CodeSystem/v2-0203","code":"NNKOR"}]},"system":"http://mois.go.kr/rnn","value":"9206272******"}],"name":[{"text":"정한나"}]}},"effectiveDateTime":"2024-08-26T00:00:00Z","performer":[{"reference":"Organization/11100001","resource":{"resourceType":"Organization","id":"11100001","identifier":[{"value":"11366621"}],"type":[{"coding":[{"system":"미정","code":"미정","display":"병의원"}],"text":"병의원"}],"name":"의료법인 창덕의료재단 필립의원"}}],"resultsInterpreter":[{"reference":"Practitioner/11200001","resource":{"resourceType":"Practitioner","id":"11200001","identifier":[{"system":"https://www.mohw.go.kr","value":"*****"}],"name":[{"text":"김민경"}]}}],"result":[{"reference":"Observation/ESI1028","resource":{"resourceType":"Observation","id":"ESI1028","status":"final","code":{"coding":[{"system":"https://www.k-his.or.kr","code":"ESI1028","display":"종합소견_의심질환"}],"text":"종합소견_의심질환"},"effectiveDateTime":"2024-08-22","valueString":"해당사항없음"}},{"reference":"Observation/ESI1029","resource":{"resourceType":"Observation","id":"ESI1029","status":"final","code":{"coding":[{"system":"https://www.k-his.or.kr","code":"ESI1029","display":"종합소견_유질환"}],"text":"종합소견_유질환"},"effectiveDateTime":"2024-08-22","valueString":"해당사항없음"}},{"reference":"Observation/ESI1030","resource":{"resourceType":"Observation","id":"ESI1030","status":"final","code":{"coding":[{"system":"https://www.k-his.or.kr","code":"ESI1030","display":"종합소견_생활습관관리"}],"text":"종합소견_생활습관관리"},"effectiveDateTime":"2024-08-22","valueString":"*일주일에 2일 이상 신체 각 부위를 모두 포함하여 근력 운동을 수행하십시오.*신체활동량이 부족합니다. 운동을 생활화하십시오."}},{"reference":"Observation/ESI1031","resource":{"resourceType":"Observation","id":"ESI1031","status":"final","code":{"coding":[{"system":"https://www.k-his.or.kr","code":"ESI1031","display":"기타"}],"text":"기타"},"effectiveDateTime":"2024-08-22","valueString":"*꾸준한 자기 관리를 통해 현재의 건강을 유지하시기 바랍니다."}},{"reference":"Observation/ESI1021","resource":{"resourceType":"QuestionnaireResponse","id":"ESI1021","status":"completed","item":[{"linkId":"1","text":"과거병력","answer":[{"valueString":"무"}]}]}},{"reference":"Observation/ESI1021-1","resource":{"resourceType":"QuestionnaireResponse","id":"ESI1021-1","status":"completed","item":[{"linkId":"2","text":"생활습관","answer":[{"valueString":"□ 금연 필요 □ 절주 필요 ■ 신체활동 필요 ■ 근력운동 필요"}]}]}},{"reference":"Observation/ESI1021-2","resource":{"resourceType":"QuestionnaireResponse","id":"ESI1021-2","status":"completed","item":[{"linkId":"3","text":"약물치료","answer":[{"valueString":"무"}]}]}},{"reference":"Observation/11300001","resource":{"resourceType":"Observation","id":"11300001","status":"final","code":{"text":"문진"},"effectiveDateTime":"2024-08-22","hasMember":[{"reference":"Observation/ESI1021","resource":{"resourceType":"QuestionnaireResponse","id":"ESI1021","status":"completed","item":[{"linkId":"1","text":"과거병력","answer":[{"valueString":"무"}]}]}},{"reference":"Observation/ESI1021-1","resource":{"resourceType":"QuestionnaireResponse","id":"ESI1021-1","status":"completed","item":[{"linkId":"2","text":"생활습관","answer":[{"valueString":"□ 금연 필요 □ 절주 필요 ■ 신체활동 필요 ■ 근력운동 필요"}]}]}},{"reference":"Observation/ESI1021-2","resource":{"resourceType":"QuestionnaireResponse","id":"ESI1021-2","status":"completed","item":[{"linkId":"3","text":"약물치료","answer":[{"valueString":"무"}]}]}}]}},{"reference":"Observation/ESI1022","resource":{"resourceType":"Observation","id":"ESI1022","status":"final","code":{"coding":[{"system":"https://www.k-his.or.kr","code":"ESI1022","display":"B형감염_대상여부"}],"text":"B형감염_대상여부"},"effectiveDateTime":"2024-08-22","valueString":"비해당"}},{"reference":"Observation/ESI1023","resource":{"resourceType":"Observation","id":"ESI1023","status":"final","code":{"coding":[{"system":"https://www.k-his.or.kr","code":"ESI1023","display":"우울증_결과"}],"text":"우울증_결과"},"effectiveDateTime":"2024-08-22","valueString":"우울증상이 없음"}},{"reference":"Observation/ESI1023-1","resource":{"resourceType":"Observation","id":"ESI1023-1","status":"final","code":{"coding":[{"system":"https://www.k-his.or.kr","code":"ESI1023-1","display":"우울증_대상여부"}],"text":"우울증_대상여부"},"effectiveDateTime":"2024-08-22","valueString":"해당"}},{"reference":"Observation/ESI1024-1","resource":{"resourceType":"Observation","id":"ESI1024-1","status":"final","code":{"coding":[{"system":"https://www.k-his.or.kr","code":"ESI1024-1","display":"인지기능장애_대상여부"}],"text":"인지기능장애_대상여부"},"effectiveDateTime":"2024-08-22","valueString":"비해당"}},{"reference":"Observation/ESI1025-1","resource":{"resourceType":"Observation","id":"ESI1025-1","status":"final","code":{"coding":[{"system":"https://www.k-his.or.kr","code":"ESI1025-1","display":"골밀도검사_대상여부"}],"text":"골밀도검사_대상여부"},"effectiveDateTime":"2024-08-22","valueString":"비해당"}},{"reference":"Observation/ESI1026-1","resource":{"resourceType":"Observation","id":"ESI1026-1","status":"final","code":{"coding":[{"system":"https://www.k-his.or.kr","code":"ESI1026-1","display":"노인신체기능검사_대상여부"}],"text":"노인신체기능검사_대상여부"},"effectiveDateTime":"2024-08-22","valueString":"비해당"}},{"reference":"Observation/ESI1027","resource":{"resourceType":"QuestionnaireResponse","id":"ESI1027","status":"completed","item":[{"linkId":"1","text":"대상여부","answer":[{"valueString":"비해당"}]}]}},{"reference":"Observation/ESI1027-2","resource":{"resourceType":"QuestionnaireResponse","id":"ESI1027-2","status":"completed","item":[{"linkId":"3","text":"예방접종","answer":[{"valueString":"□ 인플루엔자 접종 필요 □ 폐렴구균 접종 필요 □ 접종 필요 없음"}]}]}},{"reference":"Observation/11300002","resource":{"resourceType":"Observation","id":"11300002","status":"final","code":{"text":"노인기능평가문진"},"effectiveDateTime":"2024-08-22","hasMember":[{"reference":"Observation/ESI1027","resource":{"resourceType":"QuestionnaireResponse","id":"ESI1027","status":"completed","item":[{"linkId":"1","text":"대상여부","answer":[{"valueString":"비해당"}]}]}},{"reference":"Observation/ESI1027-2","resource":{"resourceType":"QuestionnaireResponse","id":"ESI1027-2","status":"completed","item":[{"linkId":"3","text":"예방접종","answer":[{"valueString":"□ 인플루엔자 접종 필요 □ 폐렴구균 접종 필요 □ 접종 필요 없음"}]}]}}]}},{"reference":"Observation/ESI1001","resource":{"resourceType":"Observation","id":"ESI1001","status":"final","code":{"coding":[{"system":"https://www.k-his.or.kr","code":"ESI1001","display":"키"}],"text":"키"},"effectiveDateTime":"2024-08-22","valueString":"1651"}},{"reference":"Observation/ESI1002","resource":{"resourceType":"Observation","id":"ESI1002","status":"final","code":{"coding":[{"system":"https://www.k-his.or.kr","code":"ESI1002","display":"몸무게"}],"text":"몸무게"},"effectiveDateTime":"2024-08-22","valueString":"0559"}},{"reference":"Observation/ESI1003","resource":{"resourceType":"Observation","id":"ESI1003","status":"final","code":{"coding":[{"system":"https://www.k-his.or.kr","code":"ESI1003","display":"체질량지수"}],"text":"체질량지수"},"effectiveDateTime":"2024-08-22","valueString":"20.5 정상"}},{"reference":"Observation/ESI1004","resource":{"resourceType":"Observation","id":"ESI1004","status":"final","code":{"coding":[{"system":"https://www.k-his.or.kr","code":"ESI1004","display":"허리둘레"}],"text":"허리둘레"},"effectiveDateTime":"2024-08-22","valueString":"70 정상"}},{"reference":"Observation/ESI1005","resource":{"resourceType":"Observation","id":"ESI1005","status":"final","code":{"coding":[{"system":"https://www.k-his.or.kr","code":"ESI1005","display":"시력_좌"}],"text":"시력_좌"},"effectiveDateTime":"2024-08-22","valueString":"12"}},{"reference":"Observation/ESI1005-1","resource":{"resourceType":"Observation","id":"ESI1005-1","status":"final","code":{"coding":[{"system":"https://www.k-his.or.kr","code":"ESI1005-1","display":"시력_우"}],"text":"시력_우"},"effectiveDateTime":"2024-08-22","valueString":"07"}},{"reference":"Observation/ESI1006","resource":{"resourceType":"Observation","id":"ESI1006","status":"final","code":{"coding":[{"system":"https://www.k-his.or.kr","code":"ESI1006","display":"청력_좌"}],"text":"청력_좌"},"effectiveDateTime":"2024-08-22","valueString":"정상"}},{"reference":"Observation/ESI1006-1","resource":{"resourceType":"Observation","id":"ESI1006-1","status":"final","code":{"coding":[{"system":"https://www.k-his.or.kr","code":"ESI1006-1","display":"청_우력"}],"text":"청_우력"},"effectiveDateTime":"2024-08-22","valueString":"정상"}},{"reference":"Observation/ESI1007","resource":{"resourceType":"Observation","id":"ESI1007","status":"final","code":{"coding":[{"system":"https://www.k-his.or.kr","code":"ESI1007","display":"혈압"}],"text":"혈압"},"effectiveDateTime":"2024-08-22","valueString":"111/78 정상"}},{"reference":"Observation/ESI1007-1","resource":{"resourceType":"Observation","id":"ESI1007-1","status":"final","code":{"coding":[{"system":"https://www.k-his.or.kr","code":"ESI1007-1","display":"*혈압_수축기"}],"text":"*혈압_수축기"},"effectiveDateTime":"2024-08-22","valueString":"111"}},{"reference":"Observation/ESI1007-2","resource":{"resourceType":"Observation","id":"ESI1007-2","status":"final","code":{"coding":[{"system":"https://www.k-his.or.kr","code":"ESI1007-2","display":"*혈압_이완기"}],"text":"*혈압_이완기"},"effectiveDateTime":"2024-08-22","valueString":"78"}},{"reference":"Observation/ESI1008","resource":{"resourceType":"Observation","id":"ESI1008","status":"final","code":{"coding":[{"system":"https://www.k-his.or.kr","code":"ESI1008","display":"혈색소"}],"text":"혈색소"},"effectiveDateTime":"2024-08-22","valueString":"12.9 정상"}},{"reference":"Observation/ESI1009","resource":{"resourceType":"Observation","id":"ESI1009","status":"final","code":{"coding":[{"system":"https://www.k-his.or.kr","code":"ESI1009","display":"공복혈당"}],"text":"공복혈당"},"effectiveDateTime":"2024-08-22","valueString":"93 정상"}},{"reference":"Observation/ESI1010","resource":{"resourceType":"Observation","id":"ESI1010","status":"final","code":{"coding":[{"system":"https://www.k-his.or.kr","code":"ESI1010","display":"총콜레스테롤"}],"text":"총콜레스테롤"},"effectiveDateTime":"2024-08-22","valueString":"0"}},{"reference":"Observation/ESI1011","resource":{"resourceType":"Observation","id":"ESI1011","status":"final","code":{"coding":[{"system":"https://www.k-his.or.kr","code":"ESI1011","display":"고밀도콜레스테롤"}],"text":"고밀도콜레스테롤"},"effectiveDateTime":"2024-08-22","valueString":"0"}},{"reference":"Observation/ESI1012","resource":{"resourceType":"Observation","id":"ESI1012","status":"final","code":{"coding":[{"system":"https://www.k-his.or.kr","code":"ESI1012","display":"중성지방"}],"text":"중성지방"},"effectiveDateTime":"2024-08-22","valueString":"0"}},{"reference":"Observation/ESI1013","resource":{"resourceType":"Observation","id":"ESI1013","status":"final","code":{"coding":[{"system":"https://www.k-his.or.kr","code":"ESI1013","display":"저밀도콜레스테롤"}],"text":"저밀도콜레스테롤"},"effectiveDateTime":"2024-08-22","valueString":"0"}},{"reference":"Observation/ESI1014","resource":{"resourceType":"Observation","id":"ESI1014","status":"final","code":{"coding":[{"system":"https://www.k-his.or.kr","code":"ESI1014","display":"혈청크레아티닌"}],"text":"혈청크레아티닌"},"effectiveDateTime":"2024-08-22","valueString":"0.7"}},{"reference":"Observation/ESI1015","resource":{"resourceType":"Observation","id":"ESI1015","status":"final","code":{"coding":[{"system":"https://www.k-his.or.kr","code":"ESI1015","display":"신사구체여과율(e-GFR)"}],"text":"신사구체여과율(e-GFR)"},"effectiveDateTime":"2024-08-22","valueString":"115"}},{"reference":"Observation/ESI1016","resource":{"resourceType":"Observation","id":"ESI1016","status":"final","code":{"coding":[{"system":"https://www.k-his.or.kr","code":"ESI1016","display":"AST(SGOT)"}],"text":"AST(SGOT)"},"effectiveDateTime":"2024-08-22","valueString":"18"}},{"reference":"Observation/ESI1017","resource":{"resourceType":"Observation","id":"ESI1017","status":"final","code":{"coding":[{"system":"https://www.k-his.or.kr","code":"ESI1017","display":"ALT(SGPT)"}],"text":"ALT(SGPT)"},"effectiveDateTime":"2024-08-22","valueString":"14"}},{"reference":"Observation/ESI1018","resource":{"resourceType":"Observation","id":"ESI1018","status":"final","code":{"coding":[{"system":"https://www.k-his.or.kr","code":"ESI1018","display":"감마지티피(y-GTP)"}],"text":"감마지티피(y-GTP)"},"effectiveDateTime":"2024-08-22","valueString":"20"}},{"reference":"Observation/ESI1019","resource":{"resourceType":"Observation","id":"ESI1019","status":"final","code":{"coding":[{"system":"https://www.k-his.or.kr","code":"ESI1019","display":"요단백"}],"text":"요단백"},"effectiveDateTime":"2024-08-22","valueString":"정상"}},{"reference":"Observation/ESI1020","resource":{"resourceType":"Observation","id":"ESI1020","status":"final","code":{"coding":[{"system":"https://www.k-his.or.kr","code":"ESI1020","display":"흉부촬영"}],"text":"흉부촬영"},"effectiveDateTime":"2024-08-22","valueString":"정상"}}],"conclusion":"정상","conclusionCode":[{"text":"정상"}]}},{"resource":{"resourceType":"Immunization","id":"14000001","meta":{"profile":["https://simplifier.net/myhealthway/StructureDefinition/PublicImmunization"]},"identifier":[{"system":"리소스식별자(미정)","value":"edfd5ab3-9fe5-4ed4-9243-631fe7e4f0b1"}],"contained":[{"resourceType":"Organization","id":"14100002","identifier":[{"value":"리소스식별자(미정)"}],"type":[{"coding":[{"system":"미정","code":"미정","display":"병의원"}],"text":"병의원"}],"name":"학교법인연세대학교의과대학세브란스병원"}],"status":"completed","vaccineCode":{"coding":[{"system":"코드체계(미정)","code":"0202","display":"B형간염(유전자재조합)"}]},"patient":{"reference":"Patient/10000000","resource":{"resourceType":"Patient","id":"10000000","meta":{"profile":["https://simplifier.net/myhealthway/StructureDefinition/PublicPatient"]},"identifier":[{"type":{"coding":[{"system":"http://myhealthway.go.kr(가칭)","code":"MHID"}]},"system":"미정","value":"10237464"},{"type":{"coding":[{"system":"http://terminology.hl7.org/CodeSystem/v2-0203","code":"NNKOR"}]},"system":"http://mois.go.kr/rnn","value":"9206272******"}],"name":[{"text":"정한나"}]}},"occurrenceDateTime":"2018-04-10","performer":[{"actor":{"reference":"Organization/14100002","resource":{"resourceType":"Organization","id":"14100002","identifier":[{"value":"리소스식별자(미정)"}],"type":[{"coding":[{"system":"미정","code":"미정","display":"병의원"}],"text":"병의원"}],"name":"학교법인연세대학교의과대학세브란스병원"}}}],"protocolApplied":[{"doseNumberPositiveInt":1}]}},{"resource":{"resourceType":"Immunization","id":"14000002","meta":{"profile":["https://simplifier.net/myhealthway/StructureDefinition/PublicImmunization"]},"identifier":[{"system":"리소스식별자(미정)","value":"2df9cccd-360d-4aea-8743-5d13acc44f07"}],"contained":[{"resourceType":"Organization","id":"14100002","identifier":[{"value":"리소스식별자(미정)"}],"type":[{"coding":[{"system":"미정","code":"미정","display":"병의원"}],"text":"병의원"}],"name":"학교법인연세대학교의과대학세브란스병원"}],"status":"completed","vaccineCode":{"coding":[{"system":"코드체계(미정)","code":"0202","display":"B형간염(유전자재조합)"}]},"patient":{"reference":"Patient/10000000","resource":{"resourceType":"Patient","id":"10000000","meta":{"profile":["https://simplifier.net/myhealthway/StructureDefinition/PublicPatient"]},"identifier":[{"type":{"coding":[{"system":"http://myhealthway.go.kr(가칭)","code":"MHID"}]},"system":"미정","value":"10237464"},{"type":{"coding":[{"system":"http://terminology.hl7.org/CodeSystem/v2-0203","code":"NNKOR"}]},"system":"http://mois.go.kr/rnn","value":"9206272******"}],"name":[{"text":"정한나"}]}},"occurrenceDateTime":"2018-05-10","performer":[{"actor":{"reference":"Organization/14100002","resource":{"resourceType":"Organization","id":"14100002","identifier":[{"value":"리소스식별자(미정)"}],"type":[{"coding":[{"system":"미정","code":"미정","display":"병의원"}],"text":"병의원"}],"name":"학교법인연세대학교의과대학세브란스병원"}}}],"protocolApplied":[{"doseNumberPositiveInt":2}]}},{"resource":{"resourceType":"Immunization","id":"14000003","meta":{"profile":["https://simplifier.net/myhealthway/StructureDefinition/PublicImmunization"]},"identifier":[{"system":"리소스식별자(미정)","value":"01cae846-a5af-4c58-ac9c-c72c3f60bf32"}],"contained":[{"resourceType":"Organization","id":"14100002","identifier":[{"value":"리소스식별자(미정)"}],"type":[{"coding":[{"system":"미정","code":"미정","display":"병의원"}],"text":"병의원"}],"name":"학교법인연세대학교의과대학세브란스병원"}],"status":"completed","vaccineCode":{"coding":[{"system":"코드체계(미정)","code":"0501","display":"홍역, 유행성이하선염, 풍진(MMR)"}]},"patient":{"reference":"Patient/10000000","resource":{"resourceType":"Patient","id":"10000000","meta":{"profile":["https://simplifier.net/myhealthway/StructureDefinition/PublicPatient"]},"identifier":[{"type":{"coding":[{"system":"http://myhealthway.go.kr(가칭)","code":"MHID"}]},"system":"미정","value":"10237464"},{"type":{"coding":[{"system":"http://terminology.hl7.org/CodeSystem/v2-0203","code":"NNKOR"}]},"system":"http://mois.go.kr/rnn","value":"9206272******"}],"name":[{"text":"정한나"}]}},"occurrenceDateTime":"2018-04-10","performer":[{"actor":{"reference":"Organization/14100002","resource":{"resourceType":"Organization","id":"14100002","identifier":[{"value":"리소스식별자(미정)"}],"type":[{"coding":[{"system":"미정","code":"미정","display":"병의원"}],"text":"병의원"}],"name":"학교법인연세대학교의과대학세브란스병원"}}}],"protocolApplied":[{"doseNumberPositiveInt":1}]}},{"resource":{"resourceType":"Immunization","id":"14000004","meta":{"profile":["https://simplifier.net/myhealthway/StructureDefinition/PublicImmunization"]},"identifier":[{"system":"리소스식별자(미정)","value":"985140e8-7808-4c19-9f07-ebc44379de30"}],"contained":[{"resourceType":"Organization","id":"14100002","identifier":[{"value":"리소스식별자(미정)"}],"type":[{"coding":[{"system":"미정","code":"미정","display":"병의원"}],"text":"병의원"}],"name":"기관미상"}],"status":"completed","vaccineCode":{"coding":[{"system":"코드체계(미정)","code":"0502","display":"홍역, 풍진(MR)"}]},"patient":{"reference":"Patient/10000000","resource":{"resourceType":"Patient","id":"10000000","meta":{"profile":["https://simplifier.net/myhealthway/StructureDefinition/PublicPatient"]},"identifier":[{"type":{"coding":[{"system":"http://myhealthway.go.kr(가칭)","code":"MHID"}]},"system":"미정","value":"10237464"},{"type":{"coding":[{"system":"http://terminology.hl7.org/CodeSystem/v2-0203","code":"NNKOR"}]},"system":"http://mois.go.kr/rnn","value":"9206272******"}],"name":[{"text":"정한나"}]}},"occurrenceDateTime":"2001-06-20","performer":[{"actor":{"reference":"Organization/14100002","resource":{"resourceType":"Organization","id":"14100002","identifier":[{"value":"리소스식별자(미정)"}],"type":[{"coding":[{"system":"미정","code":"미정","display":"병의원"}],"text":"병의원"}],"name":"기관미상"}}}],"protocolApplied":[{"doseNumberPositiveInt":1}]}},{"resource":{"resourceType":"Immunization","id":"14000005","meta":{"profile":["https://simplifier.net/myhealthway/StructureDefinition/PublicImmunization"]},"identifier":[{"system":"리소스식별자(미정)","value":"777ce70a-4cdc-45d3-ba42-d6ed2ff2e384"}],"contained":[{"resourceType":"Organization","id":"14100002","identifier":[{"value":"리소스식별자(미정)"}],"type":[{"coding":[{"system":"미정","code":"미정","display":"병의원"}],"text":"병의원"}],"name":"학교법인연세대학교의과대학세브란스병원"}],"status":"completed","vaccineCode":{"coding":[{"system":"코드체계(미정)","code":"1501","display":"A형간염"}]},"patient":{"reference":"Patient/10000000","resource":{"resourceType":"Patient","id":"10000000","meta":{"profile":["https://simplifier.net/myhealthway/StructureDefinition/PublicPatient"]},"identifier":[{"type":{"coding":[{"system":"http://myhealthway.go.kr(가칭)","code":"MHID"}]},"system":"미정","value":"10237464"},{"type":{"coding":[{"system":"http://terminology.hl7.org/CodeSystem/v2-0203","code":"NNKOR"}]},"system":"http://mois.go.kr/rnn","value":"9206272******"}],"name":[{"text":"정한나"}]}},"occurrenceDateTime":"2018-04-10","performer":[{"actor":{"reference":"Organization/14100002","resource":{"resourceType":"Organization","id":"14100002","identifier":[{"value":"리소스식별자(미정)"}],"type":[{"coding":[{"system":"미정","code":"미정","display":"병의원"}],"text":"병의원"}],"name":"학교법인연세대학교의과대학세브란스병원"}}}],"protocolApplied":[{"doseNumberPositiveInt":1}]}},{"resource":{"resourceType":"Immunization","id":"14000006","meta":{"profile":["https://simplifier.net/myhealthway/StructureDefinition/PublicImmunization"]},"identifier":[{"system":"리소스식별자(미정)","value":"21ab5fa9-e243-4f1f-ad48-fab63b06bb56"}],"contained":[{"resourceType":"Organization","id":"14100002","identifier":[{"value":"리소스식별자(미정)"}],"type":[{"coding":[{"system":"미정","code":"미정","display":"병의원"}],"text":"병의원"}],"name":"연세한강병원"}],"status":"completed","vaccineCode":{"coding":[{"system":"코드체계(미정)","code":"0901","display":"인플루엔자"}]},"patient":{"reference":"Patient/10000000","resource":{"resourceType":"Patient","id":"10000000","meta":{"profile":["https://simplifier.net/myhealthway/StructureDefinition/PublicPatient"]},"identifier":[{"type":{"coding":[{"system":"http://myhealthway.go.kr(가칭)","code":"MHID"}]},"system":"미정","value":"10237464"},{"type":{"coding":[{"system":"http://terminology.hl7.org/CodeSystem/v2-0203","code":"NNKOR"}]},"system":"http://mois.go.kr/rnn","value":"9206272******"}],"name":[{"text":"정한나"}]}},"occurrenceDateTime":"2025-01-09","performer":[{"actor":{"reference":"Organization/14100002","resource":{"resourceType":"Organization","id":"14100002","identifier":[{"value":"리소스식별자(미정)"}],"type":[{"coding":[{"system":"미정","code":"미정","display":"병의원"}],"text":"병의원"}],"name":"연세한강병원"}}}],"protocolApplied":[{"doseNumberPositiveInt":3}]}},{"resource":{"resourceType":"Immunization","id":"14000007","meta":{"profile":["https://simplifier.net/myhealthway/StructureDefinition/PublicImmunization"]},"identifier":[{"system":"리소스식별자(미정)","value":"6bb74cae-ea88-464d-a091-bd87718aebaa"}],"contained":[{"resourceType":"Organization","id":"14100002","identifier":[{"value":"리소스식별자(미정)"}],"type":[{"coding":[{"system":"미정","code":"미정","display":"병의원"}],"text":"병의원"}],"name":"경기도고양시일산동구보건소"}],"status":"completed","vaccineCode":{"coding":[{"system":"코드체계(미정)","code":"0902","display":"인플루엔자1가"}]},"patient":{"reference":"Patient/10000000","resource":{"resourceType":"Patient","id":"10000000","meta":{"profile":["https://simplifier.net/myhealthway/StructureDefinition/PublicPatient"]},"identifier":[{"type":{"coding":[{"system":"http://myhealthway.go.kr(가칭)","code":"MHID"}]},"system":"미정","value":"10237464"},{"type":{"coding":[{"system":"http://terminology.hl7.org/CodeSystem/v2-0203","code":"NNKOR"}]},"system":"http://mois.go.kr/rnn","value":"9206272******"}],"name":[{"text":"정한나"}]}},"occurrenceDateTime":"2009-12-02","performer":[{"actor":{"reference":"Organization/14100002","resource":{"resourceType":"Organization","id":"14100002","identifier":[{"value":"리소스식별자(미정)"}],"type":[{"coding":[{"system":"미정","code":"미정","display":"병의원"}],"text":"병의원"}],"name":"경기도고양시일산동구보건소"}}}],"protocolApplied":[{"doseNumberPositiveInt":1}]}},{"resource":{"resourceType":"Immunization","id":"14000008","meta":{"profile":["https://simplifier.net/myhealthway/StructureDefinition/PublicImmunization"]},"identifier":[{"system":"리소스식별자(미정)","value":"f04667cb-4cb8-4fb6-a844-44bab349f286"}],"contained":[{"resourceType":"Organization","id":"14100002","identifier":[{"value":"리소스식별자(미정)"}],"type":[{"coding":[{"system":"미정","code":"미정","display":"병의원"}],"text":"병의원"}],"name":"코로나19 고양시 일산서구 예방접종센터 (고양체육관)"}],"status":"completed","vaccineCode":{"coding":[{"system":"코드체계(미정)","code":"9901","display":"코로나19(화이자-바이오엔텍)"}]},"patient":{"reference":"Patient/10000000","resource":{"resourceType":"Patient","id":"10000000","meta":{"profile":["https://simplifier.net/myhealthway/StructureDefinition/PublicPatient"]},"identifier":[{"type":{"coding":[{"system":"http://myhealthway.go.kr(가칭)","code":"MHID"}]},"system":"미정","value":"10237464"},{"type":{"coding":[{"system":"http://terminology.hl7.org/CodeSystem/v2-0203","code":"NNKOR"}]},"system":"http://mois.go.kr/rnn","value":"9206272******"}],"name":[{"text":"정한나"}]}},"occurrenceDateTime":"2021-09-18","performer":[{"actor":{"reference":"Organization/14100002","resource":{"resourceType":"Organization","id":"14100002","identifier":[{"value":"리소스식별자(미정)"}],"type":[{"coding":[{"system":"미정","code":"미정","display":"병의원"}],"text":"병의원"}],"name":"코로나19 고양시 일산서구 예방접종센터 (고양체육관)"}}}],"protocolApplied":[{"doseNumberPositiveInt":1}]}},{"resource":{"resourceType":"Immunization","id":"14000009","meta":{"profile":["https://simplifier.net/myhealthway/StructureDefinition/PublicImmunization"]},"identifier":[{"system":"리소스식별자(미정)","value":"34d88388-6a4b-4b8a-86ae-c944ea3ff5df"}],"contained":[{"resourceType":"Organization","id":"14100002","identifier":[{"value":"리소스식별자(미정)"}],"type":[{"coding":[{"system":"미정","code":"미정","display":"병의원"}],"text":"병의원"}],"name":"365삼성i소아청소년과의원"}],"status":"completed","vaccineCode":{"coding":[{"system":"코드체계(미정)","code":"9901","display":"코로나19(화이자-바이오엔텍)"}]},"patient":{"reference":"Patient/10000000","resource":{"resourceType":"Patient","id":"10000000","meta":{"profile":["https://simplifier.net/myhealthway/StructureDefinition/PublicPatient"]},"identifier":[{"type":{"coding":[{"system":"http://myhealthway.go.kr(가칭)","code":"MHID"}]},"system":"미정","value":"10237464"},{"type":{"coding":[{"system":"http://terminology.hl7.org/CodeSystem/v2-0203","code":"NNKOR"}]},"system":"http://mois.go.kr/rnn","value":"9206272******"}],"name":[{"text":"정한나"}]}},"occurrenceDateTime":"2021-10-30","performer":[{"actor":{"reference":"Organization/14100002","resource":{"resourceType":"Organization","id":"14100002","identifier":[{"value":"리소스식별자(미정)"}],"type":[{"coding":[{"system":"미정","code":"미정","display":"병의원"}],"text":"병의원"}],"name":"365삼성i소아청소년과의원"}}}],"protocolApplied":[{"doseNumberPositiveInt":2}]}},{"resource":{"resourceType":"Patient","id":"10000000","meta":{"profile":["https://simplifier.net/myhealthway/StructureDefinition/PublicPatient"]},"identifier":[{"type":{"coding":[{"system":"http://myhealthway.go.kr(가칭)","code":"MHID"}]},"system":"미정","value":"10237464"},{"type":{"coding":[{"system":"http://terminology.hl7.org/CodeSystem/v2-0203","code":"NNKOR"}]},"system":"http://mois.go.kr/rnn","value":"9206272******"}],"name":[{"text":"정한나"}]}}],"medicalData":[]}