{"publicData":[{"resource":{"resourceType":"MedicationDispense","id":"16000001","meta":{"profile":["https://simplifier.net/myhealthway/StructureDefinition/PublicMedicationDispense"]},"identifier":[{"system":"리소스식별자(미정)","value":"9d2ae783-8982-4833-b462-89f1fe466cda"}],"contained":[{"resourceType":"Organization","id":"16200001","identifier":[{"system":"리소스식별체계(미정)","value":"543d9e7e-f85d-4c8c-b91e-72cf314d4482"}],"type":[{"coding":[{"system":"미정","code":"미정","display":"약국"}],"text":"약국"}],"name":"상상약국","address":[{"text":"서울특별시 관악구 남부순환로"}]}],"status":"completed","medicationReference":{"reference":"Medication/16100001","resource":{"resourceType":"Medication","id":"16100001","meta":{"profile":["https://simplifier.net/myhealthway/StructureDefinition/PublicMedication"]},"identifier":[{"system":"리소스식별자(미정)","value":"medication1"}],"contained":[{"resourceType":"Substance","id":"163000001","identifier":[{"system":"리소스식별자(미정)","value":"aceclofenac"}]}],"code":{"coding":[{"system":"https://biz.kpis.or.kr/CodeSystem/kdcode","code":"622800200","display":"아페락정(아세클로페낙)_(0.1g/1정)"}],"text":"아페락정(아세클로페낙)_(0.1g/1정)"},"ingredient":[{"itemReference":{"reference":"Substance/163000001","resource":{"resourceType":"Substance","id":"163000001","identifier":[{"system":"리소스식별자(미정)","value":"aceclofenac"}],"code":{"coding":[{"system":"https://www.hira.or.kr","code":"100901ATB","display":"aceclofenac"}]}}}}]}},"subject":{"reference":"Patient/10000000","resource":{"resourceType":"Patient","id":"10000000","meta":{"profile":["https://simplifier.net/myhealthway/StructureDefinition/PublicPatient"]},"identifier":[{"type":{"coding":[{"system":"http://myhealthway.go.kr(가칭)","code":"MHID"}]},"system":"미정","value":"10236291"},{"type":{"coding":[{"system":"http://terminology.hl7.org/CodeSystem/v2-0203","code":"NNKOR"}]},"system":"http://mois.go.kr/rnn","value":"0107213******"}],"name":[{"text":"김산"}]}},"performer":[{"actor":{"reference":"Organization/16200001","resource":{"resourceType":"Organization","id":"16200001","identifier":[{"system":"리소스식별체계(미정)","value":"543d9e7e-f85d-4c8c-b91e-72cf314d4482"}],"type":[{"coding":[{"system":"미정","code":"미정","display":"약국"}],"text":"약국"}],"name":"상상약국","address":[{"text":"서울특별시 관악구 남부순환로"}]}}}],"daysSupply":{"value":3,"unit":"일","system":"http://unitsofmeasure.org","code":"d"},"whenPrepared":"2025-03-31","dosageInstruction":[{"text":"1정","timing":{"repeat":{"extension":[{"url":"https://simplifier.net/myhealthway/StructureDefinition/TimingforPublicMedicationDispense","valueString":"2"}],"frequency":2,"period":1,"periodUnit":"d"}},"doseAndRate":[{"doseQuantity":{"value":1.0}}]}]}},{"resource":{"resourceType":"MedicationDispense","id":"16000002","meta":{"profile":["https://simplifier.net/myhealthway/StructureDefinition/PublicMedicationDispense"]},"identifier":[{"system":"리소스식별자(미정)","value":"7a1d9c4e-7c0a-410c-903a-2fb2fb656b75"}],"contained":[{"resourceType":"Organization","id":"16200002","identifier":[{"system":"리소스식별체계(미정)","value":"4eba8979-f93d-460d-8327-025f47454a5d"}],"type":[{"coding":[{"system":"미정","code":"미정","display":"약국"}],"text":"약국"}],"name":"상상약국","address":[{"text":"서울특별시 관악구 남부순환로"}]}],"status":"completed","medicationReference":{"reference":"Medication/16100002","resource":{"resourceType":"Medication","id":"16100002","meta":{"profile":["https://simplifier.net/myhealthway/StructureDefinition/PublicMedication"]},"identifier":[{"system":"리소스식별자(미정)","value":"medication1"}],"contained":[{"resourceType":"Substance","id":"163000001","identifier":[{"system":"리소스식별자(미정)","value":"artemisiae argyi folium 95% ethanol ext.(20→1)"}]}],"code":{"coding":[{"system":"https://biz.kpis.or.kr/CodeSystem/kdcode","code":"643104530","display":"바이틸린투엑스정(애엽95%에탄올연조엑스(20→1))_(90mg/1정)"}],"text":"바이틸린투엑스정(애엽95%에탄올연조엑스(20→1))_(90mg/1정)"},"ingredient":[{"itemReference":{"reference":"Substance/163000001","resource":{"resourceType":"Substance","id":"163000001","identifier":[{"system":"리소스식별자(미정)","value":"artemisiae argyi folium 95% ethanol ext.(20→1)"}],"code":{"coding":[{"system":"https://www.hira.or.kr","code":"430102ATB","display":"artemisiae argyi folium 95% ethanol ext.(20→1)"}]}}}}]}},"subject":{"reference":"Patient/10000000","resource":{"resourceType":"Patient","id":"10000000","meta":{"profile":["https://simplifier.net/myhealthway/StructureDefinition/PublicPatient"]},"identifier":[{"type":{"coding":[{"system":"http://myhealthway.go.kr(가칭)","code":"MHID"}]},"system":"미정","value":"10236291"},{"type":{"coding":[{"system":"http://terminology.hl7.org/CodeSystem/v2-0203","code":"NNKOR"}]},"system":"http://mois.go.kr/rnn","value":"0107213******"}],"name":[{"text":"김산"}]}},"performer":[{"actor":{"reference":"Organization/16200002","resource":{"resourceType":"Organization","id":"16200002","identifier":[{"system":"리소스식별체계(미정)","value":"4eba8979-f93d-460d-8327-025f47454a5d"}],"type":[{"coding":[{"system":"미정","code":"미정","display":"약국"}],"text":"약국"}],"name":"상상약국","address":[{"text":"서울특별시 관악구 남부순환로"}]}}}],"daysSupply":{"value":3,"unit":"일","system":"http://unitsofmeasure.org","code":"d"},"whenPrepared":"2025-03-31","dosageInstruction":[{"text":"1정","timing":{"repeat":{"extension":[{"url":"https://simplifier.net/myhealthway/StructureDefinition/TimingforPublicMedicationDispense","valueString":"2"}],"frequency":2,"period":1,"periodUnit":"d"}},"doseAndRate":[{"doseQuantity":{"value":1.0}}]}]}},{"resource":{"resourceType":"MedicationDispense","id":"16000003","meta":{"profile":["https://simplifier.net/myhealthway/StructureDefinition/PublicMedicationDispense"]},"identifier":[{"system":"리소스식별자(미정)","value":"e4bec3a6-e03b-4cbc-a02e-3f5824097143"}],"contained":[{"resourceType":"Organization","id":"16200003","identifier":[{"system":"리소스식별체계(미정)","value":"91e2ac1e-53f2-4293-a95a-0ad325baef7a"}],"type":[{"coding":[{"system":"미정","code":"미정","display":"약국"}],"text":"약국"}],"name":"금강약국","address":[{"text":"서울특별시 강서구 금낭화로"}]}],"status":"completed","medicationReference":{"reference":"Medication/16100003","resource":{"resourceType":"Medication","id":"16100003","meta":{"profile":["https://simplifier.net/myhealthway/StructureDefinition/PublicMedication"]},"identifier":[{"system":"리소스식별자(미정)","value":"medication1"}],"contained":[{"resourceType":"Substance","id":"163000001","identifier":[{"system":"리소스식별자(미정)","value":"prednisolone"}]}],"code":{"coding":[{"system":"https://biz.kpis.or.kr/CodeSystem/kdcode","code":"642105020","display":"소론도정(프레드니솔론)_(5mg/1정)"}],"text":"소론도정(프레드니솔론)_(5mg/1정)"},"ingredient":[{"itemReference":{"reference":"Substance/163000001","resource":{"resourceType":"Substance","id":"163000001","identifier":[{"system":"리소스식별자(미정)","value":"prednisolone"}],"code":{"coding":[{"system":"https://www.hira.or.kr","code":"217001ATB","display":"prednisolone"}]}}}}]}},"subject":{"reference":"Patient/10000000","resource":{"resourceType":"Patient","id":"10000000","meta":{"profile":["https://simplifier.net/myhealthway/StructureDefinition/PublicPatient"]},"identifier":[{"type":{"coding":[{"system":"http://myhealthway.go.kr(가칭)","code":"MHID"}]},"system":"미정","value":"10236291"},{"type":{"coding":[{"system":"http://terminology.hl7.org/CodeSystem/v2-0203","code":"NNKOR"}]},"system":"http://mois.go.kr/rnn","value":"0107213******"}],"name":[{"text":"김산"}]}},"performer":[{"actor":{"reference":"Organization/16200003","resource":{"resourceType":"Organization","id":"16200003","identifier":[{"system":"리소스식별체계(미정)","value":"91e2ac1e-53f2-4293-a95a-0ad325baef7a"}],"type":[{"coding":[{"system":"미정","code":"미정","display":"약국"}],"text":"약국"}],"name":"금강약국","address":[{"text":"서울특별시 강서구 금낭화로"}]}}}],"daysSupply":{"value":2,"unit":"일","system":"http://unitsofmeasure.org","code":"d"},"whenPrepared":"2025-02-20","dosageInstruction":[{"text":"1정","timing":{"repeat":{"extension":[{"url":"https://simplifier.net/myhealthway/StructureDefinition/TimingforPublicMedicationDispense","valueString":"3"}],"frequency":3,"period":1,"periodUnit":"d"}},"doseAndRate":[{"doseQuantity":{"value":1.0}}]}]}},{"resource":{"resourceType":"MedicationDispense","id":"16000004","meta":{"profile":["https://simplifier.net/myhealthway/StructureDefinition/PublicMedicationDispense"]},"identifier":[{"system":"리소스식별자(미정)","value":"c43545be-4a1c-43f0-8309-ba706060ffd9"}],"contained":[{"resourceType":"Organization","id":"16200004","identifier":[{"system":"리소스식별체계(미정)","value":"49230a99-d774-475d-89bb-d54bb551ba92"}],"type":[{"coding":[{"system":"미정","code":"미정","display":"약국"}],"text":"약국"}],"name":"금강약국","address":[{"text":"서울특별시 강서구 금낭화로"}]}],"status":"completed","medicationReference":{"reference":"Medication/16100004","resource":{"resourceType":"Medication","id":"16100004","meta":{"profile":["https://simplifier.net/myhealthway/StructureDefinition/PublicMedication"]},"identifier":[{"system":"리소스식별자(미정)","value":"medication1"}],"contained":[{"resourceType":"Substance","id":"163000001","identifier":[{"system":"리소스식별자(미정)","value":"tetracycline hydrochloride"}]}],"code":{"coding":[{"system":"https://biz.kpis.or.kr/CodeSystem/kdcode","code":"643303740","display":"테라싸이클린캅셀250밀리그람(염산테트라싸이클린)_(0.25g/1캡슐)"}],"text":"테라싸이클린캅셀250밀리그람(염산테트라싸이클린)_(0.25g/1캡슐)"},"ingredient":[{"itemReference":{"reference":"Substance/163000001","resource":{"resourceType":"Substance","id":"163000001","identifier":[{"system":"리소스식별자(미정)","value":"tetracycline hydrochloride"}],"code":{"coding":[{"system":"https://www.hira.or.kr","code":"236701ACH","display":"tetracycline hydrochloride"}]}}}}]}},"subject":{"reference":"Patient/10000000","resource":{"resourceType":"Patient","id":"10000000","meta":{"profile":["https://simplifier.net/myhealthway/StructureDefinition/PublicPatient"]},"identifier":[{"type":{"coding":[{"system":"http://myhealthway.go.kr(가칭)","code":"MHID"}]},"system":"미정","value":"10236291"},{"type":{"coding":[{"system":"http://terminology.hl7.org/CodeSystem/v2-0203","code":"NNKOR"}]},"system":"http://mois.go.kr/rnn","value":"0107213******"}],"name":[{"text":"김산"}]}},"performer":[{"actor":{"reference":"Organization/16200004","resource":{"resourceType":"Organization","id":"16200004","identifier":[{"system":"리소스식별체계(미정)","value":"49230a99-d774-475d-89bb-d54bb551ba92"}],"type":[{"coding":[{"system":"미정","code":"미정","display":"약국"}],"text":"약국"}],"name":"금강약국","address":[{"text":"서울특별시 강서구 금낭화로"}]}}}],"daysSupply":{"value":2,"unit":"일","system":"http://unitsofmeasure.org","code":"d"},"whenPrepared":"2025-02-20","dosageInstruction":[{"text":"1캡슐","timing":{"repeat":{"extension":[{"url":"https://simplifier.net/myhealthway/StructureDefinition/TimingforPublicMedicationDispense","valueString":"3"}],"frequency":3,"period":1,"periodUnit":"d"}},"doseAndRate":[{"doseQuantity":{"value":0.6667}}]}]}},{"resource":{"resourceType":"MedicationDispense","id":"16000005","meta":{"profile":["https://simplifier.net/myhealthway/StructureDefinition/PublicMedicationDispense"]},"identifier":[{"system":"리소스식별자(미정)","value":"6a12bedb-a2f1-4864-a51e-0c52e59c7ca1"}],"contained":[{"resourceType":"Organization","id":"16200005","identifier":[{"system":"리소스식별체계(미정)","value":"b251e1b5-78c0-4b18-af9f-9c1f86b7fb13"}],"type":[{"coding":[{"system":"미정","code":"미정","display":"약국"}],"text":"약국"}],"name":"금강약국","address":[{"text":"서울특별시 강서구 금낭화로"}]}],"status":"completed","medicationReference":{"reference":"Medication/16100005","resource":{"resourceType":"Medication","id":"16100005","meta":{"profile":["https://simplifier.net/myhealthway/StructureDefinition/PublicMedication"]},"identifier":[{"system":"리소스식별자(미정)","value":"medication1"}],"contained":[{"resourceType":"Substance","id":"163000001","identifier":[{"system":"리소스식별자(미정)","value":"acetaminophen(encapsulated)"}]}],"code":{"coding":[{"system":"https://biz.kpis.or.kr/CodeSystem/kdcode","code":"645700870","display":"세토펜정325밀리그램(아세트아미노펜)_(0.325g/1정)"}],"text":"세토펜정325밀리그램(아세트아미노펜)_(0.325g/1정)"},"ingredient":[{"itemReference":{"reference":"Substance/163000001","resource":{"resourceType":"Substance","id":"163000001","identifier":[{"system":"리소스식별자(미정)","value":"acetaminophen(encapsulated)"}],"code":{"coding":[{"system":"https://www.hira.or.kr","code":"101404ATB","display":"acetaminophen(encapsulated)"}]}}}}]}},"subject":{"reference":"Patient/10000000","resource":{"resourceType":"Patient","id":"10000000","meta":{"profile":["https://simplifier.net/myhealthway/StructureDefinition/PublicPatient"]},"identifier":[{"type":{"coding":[{"system":"http://myhealthway.go.kr(가칭)","code":"MHID"}]},"system":"미정","value":"10236291"},{"type":{"coding":[{"system":"http://terminology.hl7.org/CodeSystem/v2-0203","code":"NNKOR"}]},"system":"http://mois.go.kr/rnn","value":"0107213******"}],"name":[{"text":"김산"}]}},"performer":[{"actor":{"reference":"Organization/16200005","resource":{"resourceType":"Organization","id":"16200005","identifier":[{"system":"리소스식별체계(미정)","value":"b251e1b5-78c0-4b18-af9f-9c1f86b7fb13"}],"type":[{"coding":[{"system":"미정","code":"미정","display":"약국"}],"text":"약국"}],"name":"금강약국","address":[{"text":"서울특별시 강서구 금낭화로"}]}}}],"daysSupply":{"value":2,"unit":"일","system":"http://unitsofmeasure.org","code":"d"},"whenPrepared":"2025-02-20","dosageInstruction":[{"text":"1정","timing":{"repeat":{"extension":[{"url":"https://simplifier.net/myhealthway/StructureDefinition/TimingforPublicMedicationDispense","valueString":"3"}],"frequency":3,"period":1,"periodUnit":"d"}},"doseAndRate":[{"doseQuantity":{"value":1.0}}]}]}},{"resource":{"resourceType":"MedicationDispense","id":"16000006","meta":{"profile":["https://simplifier.net/myhealthway/StructureDefinition/PublicMedicationDispense"]},"identifier":[{"system":"리소스식별자(미정)","value":"b1ff760e-9f54-4438-97dd-07ff2dfa2cec"}],"contained":[{"resourceType":"Organization","id":"16200006","identifier":[{"system":"리소스식별체계(미정)","value":"1aac9e18-52b4-41c9-945e-d6b7755c2d13"}],"type":[{"coding":[{"system":"미정","code":"미정","display":"약국"}],"text":"약국"}],"name":"금강약국","address":[{"text":"서울특별시 강서구 금낭화로"}]}],"status":"completed","medicationReference":{"reference":"Medication/16100006","resource":{"resourceType":"Medication","id":"16100006","meta":{"profile":["https://simplifier.net/myhealthway/StructureDefinition/PublicMedication"]},"identifier":[{"system":"리소스식별자(미정)","value":"medication1"}],"contained":[{"resourceType":"Substance","id":"163000001","identifier":[{"system":"리소스식별자(미정)","value":"pelubiprofen tromethamine (as pelubiprofen)"}]}],"code":{"coding":[{"system":"https://biz.kpis.or.kr/CodeSystem/kdcode","code":"671807340","display":"펠루비에스정(펠루비프로펜트로메타민)_(36.73mg/1정)"}],"text":"펠루비에스정(펠루비프로펜트로메타민)_(36.73mg/1정)"},"ingredient":[{"itemReference":{"reference":"Substance/163000001","resource":{"resourceType":"Substance","id":"163000001","identifier":[{"system":"리소스식별자(미정)","value":"pelubiprofen tromethamine (as pelubiprofen)"}],"code":{"coding":[{"system":"https://www.hira.or.kr","code":"697701ATB","display":"pelubiprofen tromethamine (as pelubiprofen)"}]}}}}]}},"subject":{"reference":"Patient/10000000","resource":{"resourceType":"Patient","id":"10000000","meta":{"profile":["https://simplifier.net/myhealthway/StructureDefinition/PublicPatient"]},"identifier":[{"type":{"coding":[{"system":"http://myhealthway.go.kr(가칭)","code":"MHID"}]},"system":"미정","value":"10236291"},{"type":{"coding":[{"system":"http://terminology.hl7.org/CodeSystem/v2-0203","code":"NNKOR"}]},"system":"http://mois.go.kr/rnn","value":"0107213******"}],"name":[{"text":"김산"}]}},"performer":[{"actor":{"reference":"Organization/16200006","resource":{"resourceType":"Organization","id":"16200006","identifier":[{"system":"리소스식별체계(미정)","value":"1aac9e18-52b4-41c9-945e-d6b7755c2d13"}],"type":[{"coding":[{"system":"미정","code":"미정","display":"약국"}],"text":"약국"}],"name":"금강약국","address":[{"text":"서울특별시 강서구 금낭화로"}]}}}],"daysSupply":{"value":3,"unit":"일","system":"http://unitsofmeasure.org","code":"d"},"whenPrepared":"2025-02-20","dosageInstruction":[{"text":"1정","timing":{"repeat":{"extension":[{"url":"https://simplifier.net/myhealthway/StructureDefinition/TimingforPublicMedicationDispense","valueString":"3"}],"frequency":3,"period":1,"periodUnit":"d"}},"doseAndRate":[{"doseQuantity":{"value":1.0}}]}]}},{"resource":{"resourceType":"MedicationDispense","id":"16000007","meta":{"profile":["https://simplifier.net/myhealthway/StructureDefinition/PublicMedicationDispense"]},"identifier":[{"system":"리소스식별자(미정)","value":"04c17e00-8bc6-4e4f-8619-57ed147e323e"}],"contained":[{"resourceType":"Organization","id":"16200007","identifier":[{"system":"리소스식별체계(미정)","value":"1792c666-29e4-4191-b6ed-b8ce0b91bf8e"}],"type":[{"coding":[{"system":"미정","code":"미정","display":"약국"}],"text":"약국"}],"name":"금강약국","address":[{"text":"서울특별시 강서구 금낭화로"}]}],"status":"completed","medicationReference":{"reference":"Medication/16100007","resource":{"resourceType":"Medication","id":"16100007","meta":{"profile":["https://simplifier.net/myhealthway/StructureDefinition/PublicMedication"]},"identifier":[{"system":"리소스식별자(미정)","value":"medication1"}],"contained":[{"resourceType":"Substance","id":"163000001","identifier":[{"system":"리소스식별자(미정)","value":"rebamipide"}]}],"code":{"coding":[{"system":"https://biz.kpis.or.kr/CodeSystem/kdcode","code":"693900170","display":"레바트정(레바미피드)_(0.1g/1정)"}],"text":"레바트정(레바미피드)_(0.1g/1정)"},"ingredient":[{"itemReference":{"reference":"Substance/163000001","resource":{"resourceType":"Substance","id":"163000001","identifier":[{"system":"리소스식별자(미정)","value":"rebamipide"}],"code":{"coding":[{"system":"https://www.hira.or.kr","code":"222901ATB","display":"rebamipide"}]}}}}]}},"subject":{"reference":"Patient/10000000","resource":{"resourceType":"Patient","id":"10000000","meta":{"profile":["https://simplifier.net/myhealthway/StructureDefinition/PublicPatient"]},"identifier":[{"type":{"coding":[{"system":"http://myhealthway.go.kr(가칭)","code":"MHID"}]},"system":"미정","value":"10236291"},{"type":{"coding":[{"system":"http://terminology.hl7.org/CodeSystem/v2-0203","code":"NNKOR"}]},"system":"http://mois.go.kr/rnn","value":"0107213******"}],"name":[{"text":"김산"}]}},"performer":[{"actor":{"reference":"Organization/16200007","resource":{"resourceType":"Organization","id":"16200007","identifier":[{"system":"리소스식별체계(미정)","value":"1792c666-29e4-4191-b6ed-b8ce0b91bf8e"}],"type":[{"coding":[{"system":"미정","code":"미정","display":"약국"}],"text":"약국"}],"name":"금강약국","address":[{"text":"서울특별시 강서구 금낭화로"}]}}}],"daysSupply":{"value":3,"unit":"일","system":"http://unitsofmeasure.org","code":"d"},"whenPrepared":"2025-02-20","dosageInstruction":[{"text":"1정","timing":{"repeat":{"extension":[{"url":"https://simplifier.net/myhealthway/StructureDefinition/TimingforPublicMedicationDispense","valueString":"3"}],"frequency":3,"period":1,"periodUnit":"d"}},"doseAndRate":[{"doseQuantity":{"value":1.0}}]}]}},{"resource":{"resourceType":"Medication","id":"16100001","meta":{"profile":["https://simplifier.net/myhealthway/StructureDefinition/PublicMedication"]},"identifier":[{"system":"리소스식별자(미정)","value":"medication1"}],"contained":[{"resourceType":"Substance","id":"163000001","identifier":[{"system":"리소스식별자(미정)","value":"aceclofenac"}],"code":{"coding":[{"system":"https://www.hira.or.kr","code":"100901ATB","display":"aceclofenac"}]}}],"code":{"coding":[{"system":"https://biz.kpis.or.kr/CodeSystem/kdcode","code":"622800200","display":"아페락정(아세클로페낙)_(0.1g/1정)"}],"text":"아페락정(아세클로페낙)_(0.1g/1정)"},"ingredient":[{"itemReference":{"reference":"Substance/163000001","resource":{"resourceType":"Substance","id":"163000001","identifier":[{"system":"리소스식별자(미정)","value":"aceclofenac"}],"code":{"coding":[{"system":"https://www.hira.or.kr","code":"100901ATB","display":"aceclofenac"}]}}}}]}},{"resource":{"resourceType":"Medication","id":"16100002","meta":{"profile":["https://simplifier.net/myhealthway/StructureDefinition/PublicMedication"]},"identifier":[{"system":"리소스식별자(미정)","value":"medication1"}],"contained":[{"resourceType":"Substance","id":"163000001","identifier":[{"system":"리소스식별자(미정)","value":"artemisiae argyi folium 95% ethanol ext.(20→1)"}],"code":{"coding":[{"system":"https://www.hira.or.kr","code":"430102ATB","display":"artemisiae argyi folium 95% ethanol ext.(20→1)"}]}}],"code":{"coding":[{"system":"https://biz.kpis.or.kr/CodeSystem/kdcode","code":"643104530","display":"바이틸린투엑스정(애엽95%에탄올연조엑스(20→1))_(90mg/1정)"}],"text":"바이틸린투엑스정(애엽95%에탄올연조엑스(20→1))_(90mg/1정)"},"ingredient":[{"itemReference":{"reference":"Substance/163000001","resource":{"resourceType":"Substance","id":"163000001","identifier":[{"system":"리소스식별자(미정)","value":"artemisiae argyi folium 95% ethanol ext.(20→1)"}],"code":{"coding":[{"system":"https://www.hira.or.kr","code":"430102ATB","display":"artemisiae argyi folium 95% ethanol ext.(20→1)"}]}}}}]}},{"resource":{"resourceType":"Medication","id":"16100003","meta":{"profile":["https://simplifier.net/myhealthway/StructureDefinition/PublicMedication"]},"identifier":[{"system":"리소스식별자(미정)","value":"medication1"}],"contained":[{"resourceType":"Substance","id":"163000001","identifier":[{"system":"리소스식별자(미정)","value":"prednisolone"}],"code":{"coding":[{"system":"https://www.hira.or.kr","code":"217001ATB","display":"prednisolone"}]}}],"code":{"coding":[{"system":"https://biz.kpis.or.kr/CodeSystem/kdcode","code":"642105020","display":"소론도정(프레드니솔론)_(5mg/1정)"}],"text":"소론도정(프레드니솔론)_(5mg/1정)"},"ingredient":[{"itemReference":{"reference":"Substance/163000001","resource":{"resourceType":"Substance","id":"163000001","identifier":[{"system":"리소스식별자(미정)","value":"prednisolone"}],"code":{"coding":[{"system":"https://www.hira.or.kr","code":"217001ATB","display":"prednisolone"}]}}}}]}},{"resource":{"resourceType":"Medication","id":"16100004","meta":{"profile":["https://simplifier.net/myhealthway/StructureDefinition/PublicMedication"]},"identifier":[{"system":"리소스식별자(미정)","value":"medication1"}],"contained":[{"resourceType":"Substance","id":"163000001","identifier":[{"system":"리소스식별자(미정)","value":"tetracycline hydrochloride"}],"code":{"coding":[{"system":"https://www.hira.or.kr","code":"236701ACH","display":"tetracycline hydrochloride"}]}}],"code":{"coding":[{"system":"https://biz.kpis.or.kr/CodeSystem/kdcode","code":"643303740","display":"테라싸이클린캅셀250밀리그람(염산테트라싸이클린)_(0.25g/1캡슐)"}],"text":"테라싸이클린캅셀250밀리그람(염산테트라싸이클린)_(0.25g/1캡슐)"},"ingredient":[{"itemReference":{"reference":"Substance/163000001","resource":{"resourceType":"Substance","id":"163000001","identifier":[{"system":"리소스식별자(미정)","value":"tetracycline hydrochloride"}],"code":{"coding":[{"system":"https://www.hira.or.kr","code":"236701ACH","display":"tetracycline hydrochloride"}]}}}}]}},{"resource":{"resourceType":"Medication","id":"16100005","meta":{"profile":["https://simplifier.net/myhealthway/StructureDefinition/PublicMedication"]},"identifier":[{"system":"리소스식별자(미정)","value":"medication1"}],"contained":[{"resourceType":"Substance","id":"163000001","identifier":[{"system":"리소스식별자(미정)","value":"acetaminophen(encapsulated)"}],"code":{"coding":[{"system":"https://www.hira.or.kr","code":"101404ATB","display":"acetaminophen(encapsulated)"}]}}],"code":{"coding":[{"system":"https://biz.kpis.or.kr/CodeSystem/kdcode","code":"645700870","display":"세토펜정325밀리그램(아세트아미노펜)_(0.325g/1정)"}],"text":"세토펜정325밀리그램(아세트아미노펜)_(0.325g/1정)"},"ingredient":[{"itemReference":{"reference":"Substance/163000001","resource":{"resourceType":"Substance","id":"163000001","identifier":[{"system":"리소스식별자(미정)","value":"acetaminophen(encapsulated)"}],"code":{"coding":[{"system":"https://www.hira.or.kr","code":"101404ATB","display":"acetaminophen(encapsulated)"}]}}}}]}},{"resource":{"resourceType":"Medication","id":"16100006","meta":{"profile":["https://simplifier.net/myhealthway/StructureDefinition/PublicMedication"]},"identifier":[{"system":"리소스식별자(미정)","value":"medication1"}],"contained":[{"resourceType":"Substance","id":"163000001","identifier":[{"system":"리소스식별자(미정)","value":"pelubiprofen tromethamine (as pelubiprofen)"}],"code":{"coding":[{"system":"https://www.hira.or.kr","code":"697701ATB","display":"pelubiprofen tromethamine (as pelubiprofen)"}]}}],"code":{"coding":[{"system":"https://biz.kpis.or.kr/CodeSystem/kdcode","code":"671807340","display":"펠루비에스정(펠루비프로펜트로메타민)_(36.73mg/1정)"}],"text":"펠루비에스정(펠루비프로펜트로메타민)_(36.73mg/1정)"},"ingredient":[{"itemReference":{"reference":"Substance/163000001","resource":{"resourceType":"Substance","id":"163000001","identifier":[{"system":"리소스식별자(미정)","value":"pelubiprofen tromethamine (as pelubiprofen)"}],"code":{"coding":[{"system":"https://www.hira.or.kr","code":"697701ATB","display":"pelubiprofen tromethamine (as pelubiprofen)"}]}}}}]}},{"resource":{"resourceType":"Medication","id":"16100007","meta":{"profile":["https://simplifier.net/myhealthway/StructureDefinition/PublicMedication"]},"identifier":[{"system":"리소스식별자(미정)","value":"medication1"}],"contained":[{"resourceType":"Substance","id":"163000001","identifier":[{"system":"리소스식별자(미정)","value":"rebamipide"}],"code":{"coding":[{"system":"https://www.hira.or.kr","code":"222901ATB","display":"rebamipide"}]}}],"code":{"coding":[{"system":"https://biz.kpis.or.kr/CodeSystem/kdcode","code":"693900170","display":"레바트정(레바미피드)_(0.1g/1정)"}],"text":"레바트정(레바미피드)_(0.1g/1정)"},"ingredient":[{"itemReference":{"reference":"Substance/163000001","resource":{"resourceType":"Substance","id":"163000001","identifier":[{"system":"리소스식별자(미정)","value":"rebamipide"}],"code":{"coding":[{"system":"https://www.hira.or.kr","code":"222901ATB","display":"rebamipide"}]}}}}]}},{"resource":{"resourceType":"ExplanationOfBenefit","id":"17000001","meta":{"profile":["https://simplifier.net/myhealthway/StructureDefinition/PublicExplanationOfBenefit"]},"identifier":[{"system":"리소스식별자(미정)","value":"095307a0-436a-499b-b987-79b9dccc43d0"}],"contained":[{"resourceType":"Organization","id":"17100001","type":[{"coding":[{"system":"미정","code":"미정","display":"보험사"}],"text":"보험사"}],"name":"국민건강보험공단"},{"resourceType":"Organization","id":"17100002","type":[{"coding":[{"system":"미정","code":"미정","display":"병의원"}],"text":"병의원"}],"name":"바른삼성정형외과의원","address":[{"text":"관악구 남부순환로"}]},{"resourceType":"Coverage","id":"17300001","status":"active","beneficiary":{"reference":"Patient/10000000","resource":{"resourceType":"Patient","id":"10000000","meta":{"profile":["https://simplifier.net/myhealthway/StructureDefinition/PublicPatient"]},"identifier":[{"type":{"coding":[{"system":"http://myhealthway.go.kr(가칭)","code":"MHID"}]},"system":"미정","value":"10236291"},{"type":{"coding":[{"system":"http://terminology.hl7.org/CodeSystem/v2-0203","code":"NNKOR"}]},"system":"http://mois.go.kr/rnn","value":"0107213******"}],"name":[{"text":"김산"}]}},"payor":[{"reference":"Organization/17100002","resource":{"resourceType":"Organization","id":"17100002","type":[{"coding":[{"system":"미정","code":"미정","display":"병의원"}],"text":"병의원"}],"name":"바른삼성정형외과의원","address":[{"text":"관악구 남부순환로"}]}}]}],"status":"active","type":{"coding":[{"system":"http://terminology.hl7.org/CodeSystem/claim-type","code":"institutional","display":"institutional"}]},"use":"claim","patient":{"reference":"Patient/10000000","resource":{"resourceType":"Patient","id":"10000000","meta":{"profile":["https://simplifier.net/myhealthway/StructureDefinition/PublicPatient"]},"identifier":[{"type":{"coding":[{"system":"http://myhealthway.go.kr(가칭)","code":"MHID"}]},"system":"미정","value":"10236291"},{"type":{"coding":[{"system":"http://terminology.hl7.org/CodeSystem/v2-0203","code":"NNKOR"}]},"system":"http://mois.go.kr/rnn","value":"0107213******"}],"name":[{"text":"김산"}]}},"billablePeriod":{"start":"2025-03-31"},"created":"2025-03-31","insurer":{"reference":"Organization/17100001","resource":{"resourceType":"Organization","id":"17100001","type":[{"coding":[{"system":"미정","code":"미정","display":"보험사"}],"text":"보험사"}],"name":"국민건강보험공단"}},"provider":{"reference":"Organization/17100002","resource":{"resourceType":"Organization","id":"17100002","type":[{"coding":[{"system":"미정","code":"미정","display":"병의원"}],"text":"병의원"}],"name":"바른삼성정형외과의원","address":[{"text":"관악구 남부순환로"}]}},"outcome":"complete","supportingInfo":[{"sequence":1,"category":{"coding":[{"system":"http://terminology.hl7.org/CodeSystem/claiminformationcategory","code":"hospitalized","display":"Hosptialized"}]},"code":{"text":"1"}},{"sequence":2,"category":{"coding":[{"system":"http://terminology.hl7.org/CodeSystem/claiminformationcategory","code":"related","display":"Related Service"}]},"code":{"text":"1"}},{"sequence":3,"category":{"coding":[{"system":"http://terminology.hl7.org/CodeSystem/claiminformationcategory","code":"other","display":"Other"}]},"code":{"text":"1"}}],"total":[{"category":{"coding":[{"system":"http://terminology.hl7.org/CodeSystem/adjudication","code":"copay","display":"CoPay"}]},"amount":{"value":14900,"currency":"KRW"}},{"category":{"coding":[{"system":"http://terminology.hl7.org/CodeSystem/adjudication","code":"benefit","display":"Benefit Amount"}]},"amount":{"value":34810,"currency":"KRW"}}]}},{"resource":{"resourceType":"ExplanationOfBenefit","id":"17000002","meta":{"profile":["https://simplifier.net/myhealthway/StructureDefinition/PublicExplanationOfBenefit"]},"identifier":[{"system":"리소스식별자(미정)","value":"5fc41517-f9b1-4bab-803f-86dca68b87a5"}],"contained":[{"resourceType":"Organization","id":"17100001","type":[{"coding":[{"system":"미정","code":"미정","display":"보험사"}],"text":"보험사"}],"name":"국민건강보험공단"},{"resourceType":"Organization","id":"17100002","type":[{"coding":[{"system":"미정","code":"미정","display":"병의원"}],"text":"병의원"}],"name":"서울대학교직장부속치과의원","address":[{"text":"관악구 관악로"}]},{"resourceType":"Coverage","id":"17300001","status":"active","beneficiary":{"reference":"Patient/10000000","resource":{"resourceType":"Patient","id":"10000000","meta":{"profile":["https://simplifier.net/myhealthway/StructureDefinition/PublicPatient"]},"identifier":[{"type":{"coding":[{"system":"http://myhealthway.go.kr(가칭)","code":"MHID"}]},"system":"미정","value":"10236291"},{"type":{"coding":[{"system":"http://terminology.hl7.org/CodeSystem/v2-0203","code":"NNKOR"}]},"system":"http://mois.go.kr/rnn","value":"0107213******"}],"name":[{"text":"김산"}]}},"payor":[{"reference":"Organization/17100002","resource":{"resourceType":"Organization","id":"17100002","type":[{"coding":[{"system":"미정","code":"미정","display":"병의원"}],"text":"병의원"}],"name":"서울대학교직장부속치과의원","address":[{"text":"관악구 관악로"}]}}]}],"status":"active","type":{"coding":[{"system":"http://terminology.hl7.org/CodeSystem/claim-type","code":"institutional","display":"institutional"}]},"use":"claim","patient":{"reference":"Patient/10000000","resource":{"resourceType":"Patient","id":"10000000","meta":{"profile":["https://simplifier.net/myhealthway/StructureDefinition/PublicPatient"]},"identifier":[{"type":{"coding":[{"system":"http://myhealthway.go.kr(가칭)","code":"MHID"}]},"system":"미정","value":"10236291"},{"type":{"coding":[{"system":"http://terminology.hl7.org/CodeSystem/v2-0203","code":"NNKOR"}]},"system":"http://mois.go.kr/rnn","value":"0107213******"}],"name":[{"text":"김산"}]}},"billablePeriod":{"start":"2025-03-14"},"created":"2025-03-14","insurer":{"reference":"Organization/17100001","resource":{"resourceType":"Organization","id":"17100001","type":[{"coding":[{"system":"미정","code":"미정","display":"보험사"}],"text":"보험사"}],"name":"국민건강보험공단"}},"provider":{"reference":"Organization/17100002","resource":{"resourceType":"Organization","id":"17100002","type":[{"coding":[{"system":"미정","code":"미정","display":"병의원"}],"text":"병의원"}],"name":"서울대학교직장부속치과의원","address":[{"text":"관악구 관악로"}]}},"outcome":"complete","supportingInfo":[{"sequence":1,"category":{"coding":[{"system":"http://terminology.hl7.org/CodeSystem/claiminformationcategory","code":"hospitalized","display":"Hosptialized"}]},"code":{"text":"1"}},{"sequence":2,"category":{"coding":[{"system":"http://terminology.hl7.org/CodeSystem/claiminformationcategory","code":"related","display":"Related Service"}]},"code":{"text":"0"}},{"sequence":3,"category":{"coding":[{"system":"http://terminology.hl7.org/CodeSystem/claiminformationcategory","code":"other","display":"Other"}]},"code":{"text":"1"}}],"total":[{"category":{"coding":[{"system":"http://terminology.hl7.org/CodeSystem/adjudication","code":"copay","display":"CoPay"}]},"amount":{"value":16200,"currency":"KRW"}},{"category":{"coding":[{"system":"http://terminology.hl7.org/CodeSystem/adjudication","code":"benefit","display":"Benefit Amount"}]},"amount":{"value":37830,"currency":"KRW"}}]}},{"resource":{"resourceType":"ExplanationOfBenefit","id":"17000003","meta":{"profile":["https://simplifier.net/myhealthway/StructureDefinition/PublicExplanationOfBenefit"]},"identifier":[{"system":"리소스식별자(미정)","value":"4293dfaf-d32a-4570-9d3c-c9ae6d6dd9ad"}],"contained":[{"resourceType":"Organization","id":"17100001","type":[{"coding":[{"system":"미정","code":"미정","display":"보험사"}],"text":"보험사"}],"name":"국민건강보험공단"},{"resourceType":"Organization","id":"17100002","type":[{"coding":[{"system":"미정","code":"미정","display":"병의원"}],"text":"병의원"}],"name":"서울대학교직장부속치과의원","address":[{"text":"관악구 관악로"}]},{"resourceType":"Coverage","id":"17300001","status":"active","beneficiary":{"reference":"Patient/10000000","resource":{"resourceType":"Patient","id":"10000000","meta":{"profile":["https://simplifier.net/myhealthway/StructureDefinition/PublicPatient"]},"identifier":[{"type":{"coding":[{"system":"http://myhealthway.go.kr(가칭)","code":"MHID"}]},"system":"미정","value":"10236291"},{"type":{"coding":[{"system":"http://terminology.hl7.org/CodeSystem/v2-0203","code":"NNKOR"}]},"system":"http://mois.go.kr/rnn","value":"0107213******"}],"name":[{"text":"김산"}]}},"payor":[{"reference":"Organization/17100002","resource":{"resourceType":"Organization","id":"17100002","type":[{"coding":[{"system":"미정","code":"미정","display":"병의원"}],"text":"병의원"}],"name":"서울대학교직장부속치과의원","address":[{"text":"관악구 관악로"}]}}]}],"status":"active","type":{"coding":[{"system":"http://terminology.hl7.org/CodeSystem/claim-type","code":"institutional","display":"institutional"}]},"use":"claim","patient":{"reference":"Patient/10000000","resource":{"resourceType":"Patient","id":"10000000","meta":{"profile":["https://simplifier.net/myhealthway/StructureDefinition/PublicPatient"]},"identifier":[{"type":{"coding":[{"system":"http://myhealthway.go.kr(가칭)","code":"MHID"}]},"system":"미정","value":"10236291"},{"type":{"coding":[{"system":"http://terminology.hl7.org/CodeSystem/v2-0203","code":"NNKOR"}]},"system":"http://mois.go.kr/rnn","value":"0107213******"}],"name":[{"text":"김산"}]}},"billablePeriod":{"start":"2025-02-27"},"created":"2025-02-27","insurer":{"reference":"Organization/17100001","resource":{"resourceType":"Organization","id":"17100001","type":[{"coding":[{"system":"미정","code":"미정","display":"보험사"}],"text":"보험사"}],"name":"국민건강보험공단"}},"provider":{"reference":"Organization/17100002","resource":{"resourceType":"Organization","id":"17100002","type":[{"coding":[{"system":"미정","code":"미정","display":"병의원"}],"text":"병의원"}],"name":"서울대학교직장부속치과의원","address":[{"text":"관악구 관악로"}]}},"outcome":"complete","supportingInfo":[{"sequence":1,"category":{"coding":[{"system":"http://terminology.hl7.org/CodeSystem/claiminformationcategory","code":"hospitalized","display":"Hosptialized"}]},"code":{"text":"1"}},{"sequence":2,"category":{"coding":[{"system":"http://terminology.hl7.org/CodeSystem/claiminformationcategory","code":"related","display":"Related Service"}]},"code":{"text":"0"}},{"sequence":3,"category":{"coding":[{"system":"http://terminology.hl7.org/CodeSystem/claiminformationcategory","code":"other","display":"Other"}]},"code":{"text":"1"}}],"total":[{"category":{"coding":[{"system":"http://terminology.hl7.org/CodeSystem/adjudication","code":"copay","display":"CoPay"}]},"amount":{"value":3200,"currency":"KRW"}},{"category":{"coding":[{"system":"http://terminology.hl7.org/CodeSystem/adjudication","code":"benefit","display":"Benefit Amount"}]},"amount":{"value":7750,"currency":"KRW"}}]}},{"resource":{"resourceType":"ExplanationOfBenefit","id":"17000005","meta":{"profile":["https://simplifier.net/myhealthway/StructureDefinition/PublicExplanationOfBenefit"]},"identifier":[{"system":"리소스식별자(미정)","value":"b3d49b64-d1a3-4c2c-bf4e-a00f3dc02f64"}],"contained":[{"resourceType":"Organization","id":"17100001","type":[{"coding":[{"system":"미정","code":"미정","display":"보험사"}],"text":"보험사"}],"name":"국민건강보험공단"},{"resourceType":"Organization","id":"17100002","type":[{"coding":[{"system":"미정","code":"미정","display":"약국"}],"text":"약국"}],"name":"금강약국","address":[{"text":"강서구 금낭화로"}]},{"resourceType":"Coverage","id":"17300001","status":"active","beneficiary":{"reference":"Patient/10000000","resource":{"resourceType":"Patient","id":"10000000","meta":{"profile":["https://simplifier.net/myhealthway/StructureDefinition/PublicPatient"]},"identifier":[{"type":{"coding":[{"system":"http://myhealthway.go.kr(가칭)","code":"MHID"}]},"system":"미정","value":"10236291"},{"type":{"coding":[{"system":"http://terminology.hl7.org/CodeSystem/v2-0203","code":"NNKOR"}]},"system":"http://mois.go.kr/rnn","value":"0107213******"}],"name":[{"text":"김산"}]}},"payor":[{"reference":"Organization/17100002","resource":{"resourceType":"Organization","id":"17100002","type":[{"coding":[{"system":"미정","code":"미정","display":"약국"}],"text":"약국"}],"name":"금강약국","address":[{"text":"강서구 금낭화로"}]}}]}],"status":"active","type":{"coding":[{"system":"http://terminology.hl7.org/CodeSystem/claim-type","code":"pharmacy","display":"pharmacy"}]},"use":"claim","patient":{"reference":"Patient/10000000","resource":{"resourceType":"Patient","id":"10000000","meta":{"profile":["https://simplifier.net/myhealthway/StructureDefinition/PublicPatient"]},"identifier":[{"type":{"coding":[{"system":"http://myhealthway.go.kr(가칭)","code":"MHID"}]},"system":"미정","value":"10236291"},{"type":{"coding":[{"system":"http://terminology.hl7.org/CodeSystem/v2-0203","code":"NNKOR"}]},"system":"http://mois.go.kr/rnn","value":"0107213******"}],"name":[{"text":"김산"}]}},"billablePeriod":{"start":"2025-02-20"},"created":"2025-02-20","insurer":{"reference":"Organization/17100001","resource":{"resourceType":"Organization","id":"17100001","type":[{"coding":[{"system":"미정","code":"미정","display":"보험사"}],"text":"보험사"}],"name":"국민건강보험공단"}},"provider":{"reference":"Organization/17100002","resource":{"resourceType":"Organization","id":"17100002","type":[{"coding":[{"system":"미정","code":"미정","display":"약국"}],"text":"약국"}],"name":"금강약국","address":[{"text":"강서구 금낭화로"}]}},"outcome":"complete","supportingInfo":[{"sequence":1,"category":{"coding":[{"system":"http://terminology.hl7.org/CodeSystem/claiminformationcategory","code":"hospitalized","display":"Hosptialized"}]},"code":{"text":"1"}},{"sequence":2,"category":{"coding":[{"system":"http://terminology.hl7.org/CodeSystem/claiminformationcategory","code":"related","display":"Related Service"}]},"code":{"text":"1"}},{"sequence":3,"category":{"coding":[{"system":"http://terminology.hl7.org/CodeSystem/claiminformationcategory","code":"other","display":"Other"}]},"code":{"text":"3"}}],"total":[{"category":{"coding":[{"system":"http://terminology.hl7.org/CodeSystem/adjudication","code":"copay","display":"CoPay"}]},"amount":{"value":2900,"currency":"KRW"}},{"category":{"coding":[{"system":"http://terminology.hl7.org/CodeSystem/adjudication","code":"benefit","display":"Benefit Amount"}]},"amount":{"value":6940,"currency":"KRW"}}]}},{"resource":{"resourceType":"ExplanationOfBenefit","id":"17000004","meta":{"profile":["https://simplifier.net/myhealthway/StructureDefinition/PublicExplanationOfBenefit"]},"identifier":[{"system":"리소스식별자(미정)","value":"63b40e80-8c92-42ed-add4-a933516b0ddc"}],"contained":[{"resourceType":"Organization","id":"17100001","type":[{"coding":[{"system":"미정","code":"미정","display":"보험사"}],"text":"보험사"}],"name":"국민건강보험공단"},{"resourceType":"Organization","id":"17100002","type":[{"coding":[{"system":"미정","code":"미정","display":"병의원"}],"text":"병의원"}],"name":"김진형이비인후과의원","address":[{"text":"강서구 금낭화로"}]},{"resourceType":"Coverage","id":"17300001","status":"active","beneficiary":{"reference":"Patient/10000000","resource":{"resourceType":"Patient","id":"10000000","meta":{"profile":["https://simplifier.net/myhealthway/StructureDefinition/PublicPatient"]},"identifier":[{"type":{"coding":[{"system":"http://myhealthway.go.kr(가칭)","code":"MHID"}]},"system":"미정","value":"10236291"},{"type":{"coding":[{"system":"http://terminology.hl7.org/CodeSystem/v2-0203","code":"NNKOR"}]},"system":"http://mois.go.kr/rnn","value":"0107213******"}],"name":[{"text":"김산"}]}},"payor":[{"reference":"Organization/17100002","resource":{"resourceType":"Organization","id":"17100002","type":[{"coding":[{"system":"미정","code":"미정","display":"병의원"}],"text":"병의원"}],"name":"김진형이비인후과의원","address":[{"text":"강서구 금낭화로"}]}}]}],"status":"active","type":{"coding":[{"system":"http://terminology.hl7.org/CodeSystem/claim-type","code":"institutional","display":"institutional"}]},"use":"claim","patient":{"reference":"Patient/10000000","resource":{"resourceType":"Patient","id":"10000000","meta":{"profile":["https://simplifier.net/myhealthway/StructureDefinition/PublicPatient"]},"identifier":[{"type":{"coding":[{"system":"http://myhealthway.go.kr(가칭)","code":"MHID"}]},"system":"미정","value":"10236291"},{"type":{"coding":[{"system":"http://terminology.hl7.org/CodeSystem/v2-0203","code":"NNKOR"}]},"system":"http://mois.go.kr/rnn","value":"0107213******"}],"name":[{"text":"김산"}]}},"billablePeriod":{"start":"2025-02-20"},"created":"2025-02-20","insurer":{"reference":"Organization/17100001","resource":{"resourceType":"Organization","id":"17100001","type":[{"coding":[{"system":"미정","code":"미정","display":"보험사"}],"text":"보험사"}],"name":"국민건강보험공단"}},"provider":{"reference":"Organization/17100002","resource":{"resourceType":"Organization","id":"17100002","type":[{"coding":[{"system":"미정","code":"미정","display":"병의원"}],"text":"병의원"}],"name":"김진형이비인후과의원","address":[{"text":"강서구 금낭화로"}]}},"outcome":"complete","supportingInfo":[{"sequence":1,"category":{"coding":[{"system":"http://terminology.hl7.org/CodeSystem/claiminformationcategory","code":"hospitalized","display":"Hosptialized"}]},"code":{"text":"1"}},{"sequence":2,"category":{"coding":[{"system":"http://terminology.hl7.org/CodeSystem/claiminformationcategory","code":"related","display":"Related Service"}]},"code":{"text":"1"}},{"sequence":3,"category":{"coding":[{"system":"http://terminology.hl7.org/CodeSystem/claiminformationcategory","code":"other","display":"Other"}]},"code":{"text":"1"}}],"total":[{"category":{"coding":[{"system":"http://terminology.hl7.org/CodeSystem/adjudication","code":"copay","display":"CoPay"}]},"amount":{"value":5500,"currency":"KRW"}},{"category":{"coding":[{"system":"http://terminology.hl7.org/CodeSystem/adjudication","code":"benefit","display":"Benefit Amount"}]},"amount":{"value":12910,"currency":"KRW"}}]}},{"resource":{"resourceType":"ExplanationOfBenefit","id":"17000006","meta":{"profile":["https://simplifier.net/myhealthway/StructureDefinition/PublicExplanationOfBenefit"]},"identifier":[{"system":"리소스식별자(미정)","value":"5e69776b-62f7-4d80-b5ab-1bce2bfba0c4"}],"contained":[{"resourceType":"Organization","id":"17100001","type":[{"coding":[{"system":"미정","code":"미정","display":"보험사"}],"text":"보험사"}],"name":"국민건강보험공단"},{"resourceType":"Organization","id":"17100002","type":[{"coding":[{"system":"미정","code":"미정","display":"병의원"}],"text":"병의원"}],"name":"서울대학교직장부속의원","address":[{"text":"관악구 관악로"}]},{"resourceType":"Coverage","id":"17300001","status":"active","beneficiary":{"reference":"Patient/10000000","resource":{"resourceType":"Patient","id":"10000000","meta":{"profile":["https://simplifier.net/myhealthway/StructureDefinition/PublicPatient"]},"identifier":[{"type":{"coding":[{"system":"http://myhealthway.go.kr(가칭)","code":"MHID"}]},"system":"미정","value":"10236291"},{"type":{"coding":[{"system":"http://terminology.hl7.org/CodeSystem/v2-0203","code":"NNKOR"}]},"system":"http://mois.go.kr/rnn","value":"0107213******"}],"name":[{"text":"김산"}]}},"payor":[{"reference":"Organization/17100002","resource":{"resourceType":"Organization","id":"17100002","type":[{"coding":[{"system":"미정","code":"미정","display":"병의원"}],"text":"병의원"}],"name":"서울대학교직장부속의원","address":[{"text":"관악구 관악로"}]}}]}],"status":"active","type":{"coding":[{"system":"http://terminology.hl7.org/CodeSystem/claim-type","code":"institutional","display":"institutional"}]},"use":"claim","patient":{"reference":"Patient/10000000","resource":{"resourceType":"Patient","id":"10000000","meta":{"profile":["https://simplifier.net/myhealthway/StructureDefinition/PublicPatient"]},"identifier":[{"type":{"coding":[{"system":"http://myhealthway.go.kr(가칭)","code":"MHID"}]},"system":"미정","value":"10236291"},{"type":{"coding":[{"system":"http://terminology.hl7.org/CodeSystem/v2-0203","code":"NNKOR"}]},"system":"http://mois.go.kr/rnn","value":"0107213******"}],"name":[{"text":"김산"}]}},"billablePeriod":{"start":"2024-10-10"},"created":"2024-10-10","insurer":{"reference":"Organization/17100001","resource":{"resourceType":"Organization","id":"17100001","type":[{"coding":[{"system":"미정","code":"미정","display":"보험사"}],"text":"보험사"}],"name":"국민건강보험공단"}},"provider":{"reference":"Organization/17100002","resource":{"resourceType":"Organization","id":"17100002","type":[{"coding":[{"system":"미정","code":"미정","display":"병의원"}],"text":"병의원"}],"name":"서울대학교직장부속의원","address":[{"text":"관악구 관악로"}]}},"outcome":"complete","supportingInfo":[{"sequence":1,"category":{"coding":[{"system":"http://terminology.hl7.org/CodeSystem/claiminformationcategory","code":"hospitalized","display":"Hosptialized"}]},"code":{"text":"1"}},{"sequence":2,"category":{"coding":[{"system":"http://terminology.hl7.org/CodeSystem/claiminformationcategory","code":"related","display":"Related Service"}]},"code":{"text":"0"}},{"sequence":3,"category":{"coding":[{"system":"http://terminology.hl7.org/CodeSystem/claiminformationcategory","code":"other","display":"Other"}]},"code":{"text":"1"}}],"total":[{"category":{"coding":[{"system":"http://terminology.hl7.org/CodeSystem/adjudication","code":"copay","display":"CoPay"}]},"amount":{"value":3700,"currency":"KRW"}},{"category":{"coding":[{"system":"http://terminology.hl7.org/CodeSystem/adjudication","code":"benefit","display":"Benefit Amount"}]},"amount":{"value":8890,"currency":"KRW"}}]}},{"resource":{"resourceType":"ExplanationOfBenefit","id":"17000007","meta":{"profile":["https://simplifier.net/myhealthway/StructureDefinition/PublicExplanationOfBenefit"]},"identifier":[{"system":"리소스식별자(미정)","value":"ceee63f0-c37d-4ab6-92ce-1ccc9f081e7f"}],"contained":[{"resourceType":"Organization","id":"17100001","type":[{"coding":[{"system":"미정","code":"미정","display":"보험사"}],"text":"보험사"}],"name":"국민건강보험공단"},{"resourceType":"Organization","id":"17100002","type":[{"coding":[{"system":"미정","code":"미정","display":"병의원"}],"text":"병의원"}],"name":"서울대학교직장부속의원","address":[{"text":"관악구 관악로"}]},{"resourceType":"Coverage","id":"17300001","status":"active","beneficiary":{"reference":"Patient/10000000","resource":{"resourceType":"Patient","id":"10000000","meta":{"profile":["https://simplifier.net/myhealthway/StructureDefinition/PublicPatient"]},"identifier":[{"type":{"coding":[{"system":"http://myhealthway.go.kr(가칭)","code":"MHID"}]},"system":"미정","value":"10236291"},{"type":{"coding":[{"system":"http://terminology.hl7.org/CodeSystem/v2-0203","code":"NNKOR"}]},"system":"http://mois.go.kr/rnn","value":"0107213******"}],"name":[{"text":"김산"}]}},"payor":[{"reference":"Organization/17100002","resource":{"resourceType":"Organization","id":"17100002","type":[{"coding":[{"system":"미정","code":"미정","display":"병의원"}],"text":"병의원"}],"name":"서울대학교직장부속의원","address":[{"text":"관악구 관악로"}]}}]}],"status":"active","type":{"coding":[{"system":"http://terminology.hl7.org/CodeSystem/claim-type","code":"institutional","display":"institutional"}]},"use":"claim","patient":{"reference":"Patient/10000000","resource":{"resourceType":"Patient","id":"10000000","meta":{"profile":["https://simplifier.net/myhealthway/StructureDefinition/PublicPatient"]},"identifier":[{"type":{"coding":[{"system":"http://myhealthway.go.kr(가칭)","code":"MHID"}]},"system":"미정","value":"10236291"},{"type":{"coding":[{"system":"http://terminology.hl7.org/CodeSystem/v2-0203","code":"NNKOR"}]},"system":"http://mois.go.kr/rnn","value":"0107213******"}],"name":[{"text":"김산"}]}},"billablePeriod":{"start":"2024-07-10"},"created":"2024-07-10","insurer":{"reference":"Organization/17100001","resource":{"resourceType":"Organization","id":"17100001","type":[{"coding":[{"system":"미정","code":"미정","display":"보험사"}],"text":"보험사"}],"name":"국민건강보험공단"}},"provider":{"reference":"Organization/17100002","resource":{"resourceType":"Organization","id":"17100002","type":[{"coding":[{"system":"미정","code":"미정","display":"병의원"}],"text":"병의원"}],"name":"서울대학교직장부속의원","address":[{"text":"관악구 관악로"}]}},"outcome":"complete","supportingInfo":[{"sequence":1,"category":{"coding":[{"system":"http://terminology.hl7.org/CodeSystem/claiminformationcategory","code":"hospitalized","display":"Hosptialized"}]},"code":{"text":"1"}},{"sequence":2,"category":{"coding":[{"system":"http://terminology.hl7.org/CodeSystem/claiminformationcategory","code":"related","display":"Related Service"}]},"code":{"text":"0"}},{"sequence":3,"category":{"coding":[{"system":"http://terminology.hl7.org/CodeSystem/claiminformationcategory","code":"other","display":"Other"}]},"code":{"text":"1"}}],"total":[{"category":{"coding":[{"system":"http://terminology.hl7.org/CodeSystem/adjudication","code":"copay","display":"CoPay"}]},"amount":{"value":3700,"currency":"KRW"}},{"category":{"coding":[{"system":"http://terminology.hl7.org/CodeSystem/adjudication","code":"benefit","display":"Benefit Amount"}]},"amount":{"value":8890,"currency":"KRW"}}]}},{"resource":{"resourceType":"ExplanationOfBenefit","id":"17000008","meta":{"profile":["https://simplifier.net/myhealthway/StructureDefinition/PublicExplanationOfBenefit"]},"identifier":[{"system":"리소스식별자(미정)","value":"4cff83fd-e377-4823-81fe-33900e00e078"}],"contained":[{"resourceType":"Organization","id":"17100001","type":[{"coding":[{"system":"미정","code":"미정","display":"보험사"}],"text":"보험사"}],"name":"국민건강보험공단"},{"resourceType":"Organization","id":"17100002","type":[{"coding":[{"system":"미정","code":"미정","display":"병의원"}],"text":"병의원"}],"name":"스카이정형외과의원","address":[{"text":"강서구 방화동로"}]},{"resourceType":"Coverage","id":"17300001","status":"active","beneficiary":{"reference":"Patient/10000000","resource":{"resourceType":"Patient","id":"10000000","meta":{"profile":["https://simplifier.net/myhealthway/StructureDefinition/PublicPatient"]},"identifier":[{"type":{"coding":[{"system":"http://myhealthway.go.kr(가칭)","code":"MHID"}]},"system":"미정","value":"10236291"},{"type":{"coding":[{"system":"http://terminology.hl7.org/CodeSystem/v2-0203","code":"NNKOR"}]},"system":"http://mois.go.kr/rnn","value":"0107213******"}],"name":[{"text":"김산"}]}},"payor":[{"reference":"Organization/17100002","resource":{"resourceType":"Organization","id":"17100002","type":[{"coding":[{"system":"미정","code":"미정","display":"병의원"}],"text":"병의원"}],"name":"스카이정형외과의원","address":[{"text":"강서구 방화동로"}]}}]}],"status":"active","type":{"coding":[{"system":"http://terminology.hl7.org/CodeSystem/claim-type","code":"institutional","display":"institutional"}]},"use":"claim","patient":{"reference":"Patient/10000000","resource":{"resourceType":"Patient","id":"10000000","meta":{"profile":["https://simplifier.net/myhealthway/StructureDefinition/PublicPatient"]},"identifier":[{"type":{"coding":[{"system":"http://myhealthway.go.kr(가칭)","code":"MHID"}]},"system":"미정","value":"10236291"},{"type":{"coding":[{"system":"http://terminology.hl7.org/CodeSystem/v2-0203","code":"NNKOR"}]},"system":"http://mois.go.kr/rnn","value":"0107213******"}],"name":[{"text":"김산"}]}},"billablePeriod":{"start":"2024-07-04"},"created":"2024-07-04","insurer":{"reference":"Organization/17100001","resource":{"resourceType":"Organization","id":"17100001","type":[{"coding":[{"system":"미정","code":"미정","display":"보험사"}],"text":"보험사"}],"name":"국민건강보험공단"}},"provider":{"reference":"Organization/17100002","resource":{"resourceType":"Organization","id":"17100002","type":[{"coding":[{"system":"미정","code":"미정","display":"병의원"}],"text":"병의원"}],"name":"스카이정형외과의원","address":[{"text":"강서구 방화동로"}]}},"outcome":"complete","supportingInfo":[{"sequence":1,"category":{"coding":[{"system":"http://terminology.hl7.org/CodeSystem/claiminformationcategory","code":"hospitalized","display":"Hosptialized"}]},"code":{"text":"1"}},{"sequence":2,"category":{"coding":[{"system":"http://terminology.hl7.org/CodeSystem/claiminformationcategory","code":"related","display":"Related Service"}]},"code":{"text":"0"}},{"sequence":3,"category":{"coding":[{"system":"http://terminology.hl7.org/CodeSystem/claiminformationcategory","code":"other","display":"Other"}]},"code":{"text":"1"}}],"total":[{"category":{"coding":[{"system":"http://terminology.hl7.org/CodeSystem/adjudication","code":"copay","display":"CoPay"}]},"amount":{"value":8700,"currency":"KRW"}},{"category":{"coding":[{"system":"http://terminology.hl7.org/CodeSystem/adjudication","code":"benefit","display":"Benefit Amount"}]},"amount":{"value":20440,"currency":"KRW"}}]}},{"resource":{"resourceType":"Immunization","id":"14000001","meta":{"profile":["https://simplifier.net/myhealthway/StructureDefinition/PublicImmunization"]},"identifier":[{"system":"리소스식별자(미정)","value":"6b665365-01f0-4934-9e0a-3a0f77b749b4"}],"contained":[{"resourceType":"Organization","id":"14100002","identifier":[{"value":"리소스식별자(미정)"}],"type":[{"coding":[{"system":"미정","code":"미정","display":"병의원"}],"text":"병의원"}],"name":"서울대학교직장부속의원"}],"status":"completed","vaccineCode":{"coding":[{"system":"코드체계(미정)","code":"0202","display":"B형간염(유전자재조합)"}]},"patient":{"reference":"Patient/10000000","resource":{"resourceType":"Patient","id":"10000000","meta":{"profile":["https://simplifier.net/myhealthway/StructureDefinition/PublicPatient"]},"identifier":[{"type":{"coding":[{"system":"http://myhealthway.go.kr(가칭)","code":"MHID"}]},"system":"미정","value":"10236291"},{"type":{"coding":[{"system":"http://terminology.hl7.org/CodeSystem/v2-0203","code":"NNKOR"}]},"system":"http://mois.go.kr/rnn","value":"0107213******"}],"name":[{"text":"김산"}]}},"occurrenceDateTime":"2023-04-25","performer":[{"actor":{"reference":"Organization/14100002","resource":{"resourceType":"Organization","id":"14100002","identifier":[{"value":"리소스식별자(미정)"}],"type":[{"coding":[{"system":"미정","code":"미정","display":"병의원"}],"text":"병의원"}],"name":"서울대학교직장부속의원"}}}],"protocolApplied":[{"doseNumberPositiveInt":1}]}},{"resource":{"resourceType":"Immunization","id":"14000002","meta":{"profile":["https://simplifier.net/myhealthway/StructureDefinition/PublicImmunization"]},"identifier":[{"system":"리소스식별자(미정)","value":"40c1009d-5467-4380-ae34-378d2b6e74ff"}],"contained":[{"resourceType":"Organization","id":"14100002","identifier":[{"value":"리소스식별자(미정)"}],"type":[{"coding":[{"system":"미정","code":"미정","display":"병의원"}],"text":"병의원"}],"name":"서울대학교직장부속의원"}],"status":"completed","vaccineCode":{"coding":[{"system":"코드체계(미정)","code":"0202","display":"B형간염(유전자재조합)"}]},"patient":{"reference":"Patient/10000000","resource":{"resourceType":"Patient","id":"10000000","meta":{"profile":["https://simplifier.net/myhealthway/StructureDefinition/PublicPatient"]},"identifier":[{"type":{"coding":[{"system":"http://myhealthway.go.kr(가칭)","code":"MHID"}]},"system":"미정","value":"10236291"},{"type":{"coding":[{"system":"http://terminology.hl7.org/CodeSystem/v2-0203","code":"NNKOR"}]},"system":"http://mois.go.kr/rnn","value":"0107213******"}],"name":[{"text":"김산"}]}},"occurrenceDateTime":"2023-05-25","performer":[{"actor":{"reference":"Organization/14100002","resource":{"resourceType":"Organization","id":"14100002","identifier":[{"value":"리소스식별자(미정)"}],"type":[{"coding":[{"system":"미정","code":"미정","display":"병의원"}],"text":"병의원"}],"name":"서울대학교직장부속의원"}}}],"protocolApplied":[{"doseNumberPositiveInt":2}]}},{"resource":{"resourceType":"Immunization","id":"14000003","meta":{"profile":["https://simplifier.net/myhealthway/StructureDefinition/PublicImmunization"]},"identifier":[{"system":"리소스식별자(미정)","value":"b4646c8c-17fd-48e1-86e8-e064abf69b09"}],"contained":[{"resourceType":"Organization","id":"14100002","identifier":[{"value":"리소스식별자(미정)"}],"type":[{"coding":[{"system":"미정","code":"미정","display":"병의원"}],"text":"병의원"}],"name":"서울대학교직장부속의원"}],"status":"completed","vaccineCode":{"coding":[{"system":"코드체계(미정)","code":"0202","display":"B형간염(유전자재조합)"}]},"patient":{"reference":"Patient/10000000","resource":{"resourceType":"Patient","id":"10000000","meta":{"profile":["https://simplifier.net/myhealthway/StructureDefinition/PublicPatient"]},"identifier":[{"type":{"coding":[{"system":"http://myhealthway.go.kr(가칭)","code":"MHID"}]},"system":"미정","value":"10236291"},{"type":{"coding":[{"system":"http://terminology.hl7.org/CodeSystem/v2-0203","code":"NNKOR"}]},"system":"http://mois.go.kr/rnn","value":"0107213******"}],"name":[{"text":"김산"}]}},"occurrenceDateTime":"2023-10-25","performer":[{"actor":{"reference":"Organization/14100002","resource":{"resourceType":"Organization","id":"14100002","identifier":[{"value":"리소스식별자(미정)"}],"type":[{"coding":[{"system":"미정","code":"미정","display":"병의원"}],"text":"병의원"}],"name":"서울대학교직장부속의원"}}}],"protocolApplied":[{"doseNumberPositiveInt":3}]}},{"resource":{"resourceType":"Immunization","id":"14000004","meta":{"profile":["https://simplifier.net/myhealthway/StructureDefinition/PublicImmunization"]},"identifier":[{"system":"리소스식별자(미정)","value":"923fb0a9-f41b-44ab-9813-52f5c1463611"}],"contained":[{"resourceType":"Organization","id":"14100002","identifier":[{"value":"리소스식별자(미정)"}],"type":[{"coding":[{"system":"미정","code":"미정","display":"병의원"}],"text":"병의원"}],"name":"군보건의료기관"}],"status":"completed","vaccineCode":{"coding":[{"system":"코드체계(미정)","code":"0306","display":"디프테리아, 파상풍, 백일해(Tdap)"}]},"patient":{"reference":"Patient/10000000","resource":{"resourceType":"Patient","id":"10000000","meta":{"profile":["https://simplifier.net/myhealthway/StructureDefinition/PublicPatient"]},"identifier":[{"type":{"coding":[{"system":"http://myhealthway.go.kr(가칭)","code":"MHID"}]},"system":"미정","value":"10236291"},{"type":{"coding":[{"system":"http://terminology.hl7.org/CodeSystem/v2-0203","code":"NNKOR"}]},"system":"http://mois.go.kr/rnn","value":"0107213******"}],"name":[{"text":"김산"}]}},"occurrenceDateTime":"2021-01-15","performer":[{"actor":{"reference":"Organization/14100002","resource":{"resourceType":"Organization","id":"14100002","identifier":[{"value":"리소스식별자(미정)"}],"type":[{"coding":[{"system":"미정","code":"미정","display":"병의원"}],"text":"병의원"}],"name":"군보건의료기관"}}}],"protocolApplied":[{"doseNumberPositiveInt":6}]}},{"resource":{"resourceType":"Immunization","id":"14000005","meta":{"profile":["https://simplifier.net/myhealthway/StructureDefinition/PublicImmunization"]},"identifier":[{"system":"리소스식별자(미정)","value":"f0162c36-33e7-425d-b70c-d214334a4e6a"}],"contained":[{"resourceType":"Organization","id":"14100002","identifier":[{"value":"리소스식별자(미정)"}],"type":[{"coding":[{"system":"미정","code":"미정","display":"병의원"}],"text":"병의원"}],"name":"연세아이소아청소년과의원"}],"status":"completed","vaccineCode":{"coding":[{"system":"코드체계(미정)","code":"0302","display":"디프테리아, 파상풍(Td)"}]},"patient":{"reference":"Patient/10000000","resource":{"resourceType":"Patient","id":"10000000","meta":{"profile":["https://simplifier.net/myhealthway/StructureDefinition/PublicPatient"]},"identifier":[{"type":{"coding":[{"system":"http://myhealthway.go.kr(가칭)","code":"MHID"}]},"system":"미정","value":"10236291"},{"type":{"coding":[{"system":"http://terminology.hl7.org/CodeSystem/v2-0203","code":"NNKOR"}]},"system":"http://mois.go.kr/rnn","value":"0107213******"}],"name":[{"text":"김산"}]}},"occurrenceDateTime":"2013-06-29","performer":[{"actor":{"reference":"Organization/14100002","resource":{"resourceType":"Organization","id":"14100002","identifier":[{"value":"리소스식별자(미정)"}],"type":[{"coding":[{"system":"미정","code":"미정","display":"병의원"}],"text":"병의원"}],"name":"연세아이소아청소년과의원"}}}],"protocolApplied":[{"doseNumberPositiveInt":6}]}},{"resource":{"resourceType":"Immunization","id":"14000006","meta":{"profile":["https://simplifier.net/myhealthway/StructureDefinition/PublicImmunization"]},"identifier":[{"system":"리소스식별자(미정)","value":"889e5c55-57a0-4535-b925-9573575ba402"}],"contained":[{"resourceType":"Organization","id":"14100002","identifier":[{"value":"리소스식별자(미정)"}],"type":[{"coding":[{"system":"미정","code":"미정","display":"병의원"}],"text":"병의원"}],"name":"서울특별시강서구보건소"}],"status":"completed","vaccineCode":{"coding":[{"system":"코드체계(미정)","code":"0501","display":"홍역, 유행성이하선염, 풍진(MMR)"}]},"patient":{"reference":"Patient/10000000","resource":{"resourceType":"Patient","id":"10000000","meta":{"profile":["https://simplifier.net/myhealthway/StructureDefinition/PublicPatient"]},"identifier":[{"type":{"coding":[{"system":"http://myhealthway.go.kr(가칭)","code":"MHID"}]},"system":"미정","value":"10236291"},{"type":{"coding":[{"system":"http://terminology.hl7.org/CodeSystem/v2-0203","code":"NNKOR"}]},"system":"http://mois.go.kr/rnn","value":"0107213******"}],"name":[{"text":"김산"}]}},"occurrenceDateTime":"2005-08-02","performer":[{"actor":{"reference":"Organization/14100002","resource":{"resourceType":"Organization","id":"14100002","identifier":[{"value":"리소스식별자(미정)"}],"type":[{"coding":[{"system":"미정","code":"미정","display":"병의원"}],"text":"병의원"}],"name":"서울특별시강서구보건소"}}}],"protocolApplied":[{"doseNumberPositiveInt":2}]}},{"resource":{"resourceType":"Immunization","id":"14000007","meta":{"profile":["https://simplifier.net/myhealthway/StructureDefinition/PublicImmunization"]},"identifier":[{"system":"리소스식별자(미정)","value":"4745a19d-8622-4fc3-ab60-fbd698bb799d"}],"contained":[{"resourceType":"Organization","id":"14100002","identifier":[{"value":"리소스식별자(미정)"}],"type":[{"coding":[{"system":"미정","code":"미정","display":"병의원"}],"text":"병의원"}],"name":"군보건의료기관"}],"status":"completed","vaccineCode":{"coding":[{"system":"코드체계(미정)","code":"0501","display":"홍역, 유행성이하선염, 풍진(MMR)"}]},"patient":{"reference":"Patient/10000000","resource":{"resourceType":"Patient","id":"10000000","meta":{"profile":["https://simplifier.net/myhealthway/StructureDefinition/PublicPatient"]},"identifier":[{"type":{"coding":[{"system":"http://myhealthway.go.kr(가칭)","code":"MHID"}]},"system":"미정","value":"10236291"},{"type":{"coding":[{"system":"http://terminology.hl7.org/CodeSystem/v2-0203","code":"NNKOR"}]},"system":"http://mois.go.kr/rnn","value":"0107213******"}],"name":[{"text":"김산"}]}},"occurrenceDateTime":"2021-01-15","performer":[{"actor":{"reference":"Organization/14100002","resource":{"resourceType":"Organization","id":"14100002","identifier":[{"value":"리소스식별자(미정)"}],"type":[{"coding":[{"system":"미정","code":"미정","display":"병의원"}],"text":"병의원"}],"name":"군보건의료기관"}}}],"protocolApplied":[{"doseNumberPositiveInt":2}]}},{"resource":{"resourceType":"Immunization","id":"14000008","meta":{"profile":["https://simplifier.net/myhealthway/StructureDefinition/PublicImmunization"]},"identifier":[{"system":"리소스식별자(미정)","value":"eff0fc09-dde0-44ef-85bf-4f320a8bb9d3"}],"contained":[{"resourceType":"Organization","id":"14100002","identifier":[{"value":"리소스식별자(미정)"}],"type":[{"coding":[{"system":"미정","code":"미정","display":"병의원"}],"text":"병의원"}],"name":"군보건의료기관"}],"status":"completed","vaccineCode":{"coding":[{"system":"코드체계(미정)","code":"1501","display":"A형간염"}]},"patient":{"reference":"Patient/10000000","resource":{"resourceType":"Patient","id":"10000000","meta":{"profile":["https://simplifier.net/myhealthway/StructureDefinition/PublicPatient"]},"identifier":[{"type":{"coding":[{"system":"http://myhealthway.go.kr(가칭)","code":"MHID"}]},"system":"미정","value":"10236291"},{"type":{"coding":[{"system":"http://terminology.hl7.org/CodeSystem/v2-0203","code":"NNKOR"}]},"system":"http://mois.go.kr/rnn","value":"0107213******"}],"name":[{"text":"김산"}]}},"occurrenceDateTime":"2021-01-20","performer":[{"actor":{"reference":"Organization/14100002","resource":{"resourceType":"Organization","id":"14100002","identifier":[{"value":"리소스식별자(미정)"}],"type":[{"coding":[{"system":"미정","code":"미정","display":"병의원"}],"text":"병의원"}],"name":"군보건의료기관"}}}],"protocolApplied":[{"doseNumberPositiveInt":1}]}},{"resource":{"resourceType":"Immunization","id":"14000009","meta":{"profile":["https://simplifier.net/myhealthway/StructureDefinition/PublicImmunization"]},"identifier":[{"system":"리소스식별자(미정)","value":"8ac6fd58-214c-4ae2-9fe8-66e0a36fb6ca"}],"contained":[{"resourceType":"Organization","id":"14100002","identifier":[{"value":"리소스식별자(미정)"}],"type":[{"coding":[{"system":"미정","code":"미정","display":"병의원"}],"text":"병의원"}],"name":"연세아이소아청소년과의원"}],"status":"completed","vaccineCode":{"coding":[{"system":"코드체계(미정)","code":"0602","display":"일본뇌염(약독화 생백신)"}]},"patient":{"reference":"Patient/10000000","resource":{"resourceType":"Patient","id":"10000000","meta":{"profile":["https://simplifier.net/myhealthway/StructureDefinition/PublicPatient"]},"identifier":[{"type":{"coding":[{"system":"http://myhealthway.go.kr(가칭)","code":"MHID"}]},"system":"미정","value":"10236291"},{"type":{"coding":[{"system":"http://terminology.hl7.org/CodeSystem/v2-0203","code":"NNKOR"}]},"system":"http://mois.go.kr/rnn","value":"0107213******"}],"name":[{"text":"김산"}]}},"occurrenceDateTime":"2008-06-16","performer":[{"actor":{"reference":"Organization/14100002","resource":{"resourceType":"Organization","id":"14100002","identifier":[{"value":"리소스식별자(미정)"}],"type":[{"coding":[{"system":"미정","code":"미정","display":"병의원"}],"text":"병의원"}],"name":"연세아이소아청소년과의원"}}}],"protocolApplied":[{"doseNumberPositiveInt":3}]}},{"resource":{"resourceType":"Immunization","id":"14000010","meta":{"profile":["https://simplifier.net/myhealthway/StructureDefinition/PublicImmunization"]},"identifier":[{"system":"리소스식별자(미정)","value":"47c02d9c-4fad-49f5-b3c3-0c90caf2d922"}],"contained":[{"resourceType":"Organization","id":"14100002","identifier":[{"value":"리소스식별자(미정)"}],"type":[{"coding":[{"system":"미정","code":"미정","display":"병의원"}],"text":"병의원"}],"name":"군보건의료기관"}],"status":"completed","vaccineCode":{"coding":[{"system":"코드체계(미정)","code":"0901","display":"인플루엔자"}]},"patient":{"reference":"Patient/10000000","resource":{"resourceType":"Patient","id":"10000000","meta":{"profile":["https://simplifier.net/myhealthway/StructureDefinition/PublicPatient"]},"identifier":[{"type":{"coding":[{"system":"http://myhealthway.go.kr(가칭)","code":"MHID"}]},"system":"미정","value":"10236291"},{"type":{"coding":[{"system":"http://terminology.hl7.org/CodeSystem/v2-0203","code":"NNKOR"}]},"system":"http://mois.go.kr/rnn","value":"0107213******"}],"name":[{"text":"김산"}]}},"occurrenceDateTime":"2021-09-23","performer":[{"actor":{"reference":"Organization/14100002","resource":{"resourceType":"Organization","id":"14100002","identifier":[{"value":"리소스식별자(미정)"}],"type":[{"coding":[{"system":"미정","code":"미정","display":"병의원"}],"text":"병의원"}],"name":"군보건의료기관"}}}],"protocolApplied":[{"doseNumberPositiveInt":3}]}},{"resource":{"resourceType":"Immunization","id":"14000011","meta":{"profile":["https://simplifier.net/myhealthway/StructureDefinition/PublicImmunization"]},"identifier":[{"system":"리소스식별자(미정)","value":"520250f3-e9c9-422e-b696-de544dc45436"}],"contained":[{"resourceType":"Organization","id":"14100002","identifier":[{"value":"리소스식별자(미정)"}],"type":[{"coding":[{"system":"미정","code":"미정","display":"병의원"}],"text":"병의원"}],"name":"서울특별시강서구보건소"}],"status":"completed","vaccineCode":{"coding":[{"system":"코드체계(미정)","code":"0902","display":"인플루엔자1가"}]},"patient":{"reference":"Patient/10000000","resource":{"resourceType":"Patient","id":"10000000","meta":{"profile":["https://simplifier.net/myhealthway/StructureDefinition/PublicPatient"]},"identifier":[{"type":{"coding":[{"system":"http://myhealthway.go.kr(가칭)","code":"MHID"}]},"system":"미정","value":"10236291"},{"type":{"coding":[{"system":"http://terminology.hl7.org/CodeSystem/v2-0203","code":"NNKOR"}]},"system":"http://mois.go.kr/rnn","value":"0107213******"}],"name":[{"text":"김산"}]}},"occurrenceDateTime":"2009-11-20","performer":[{"actor":{"reference":"Organization/14100002","resource":{"resourceType":"Organization","id":"14100002","identifier":[{"value":"리소스식별자(미정)"}],"type":[{"coding":[{"system":"미정","code":"미정","display":"병의원"}],"text":"병의원"}],"name":"서울특별시강서구보건소"}}}],"protocolApplied":[{"doseNumberPositiveInt":1}]}},{"resource":{"resourceType":"Immunization","id":"14000012","meta":{"profile":["https://simplifier.net/myhealthway/StructureDefinition/PublicImmunization"]},"identifier":[{"system":"리소스식별자(미정)","value":"17167621-72c1-426e-82dd-052f4a69666f"}],"contained":[{"resourceType":"Organization","id":"14100002","identifier":[{"value":"리소스식별자(미정)"}],"type":[{"coding":[{"system":"미정","code":"미정","display":"병의원"}],"text":"병의원"}],"name":"군보건의료기관"}],"status":"completed","vaccineCode":{"coding":[{"system":"코드체계(미정)","code":"9901","display":"코로나19(화이자-바이오엔텍)"}]},"patient":{"reference":"Patient/10000000","resource":{"resourceType":"Patient","id":"10000000","meta":{"profile":["https://simplifier.net/myhealthway/StructureDefinition/PublicPatient"]},"identifier":[{"type":{"coding":[{"system":"http://myhealthway.go.kr(가칭)","code":"MHID"}]},"system":"미정","value":"10236291"},{"type":{"coding":[{"system":"http://terminology.hl7.org/CodeSystem/v2-0203","code":"NNKOR"}]},"system":"http://mois.go.kr/rnn","value":"0107213******"}],"name":[{"text":"김산"}]}},"occurrenceDateTime":"2021-06-17","performer":[{"actor":{"reference":"Organization/14100002","resource":{"resourceType":"Organization","id":"14100002","identifier":[{"value":"리소스식별자(미정)"}],"type":[{"coding":[{"system":"미정","code":"미정","display":"병의원"}],"text":"병의원"}],"name":"군보건의료기관"}}}],"protocolApplied":[{"doseNumberPositiveInt":1}]}},{"resource":{"resourceType":"Immunization","id":"14000013","meta":{"profile":["https://simplifier.net/myhealthway/StructureDefinition/PublicImmunization"]},"identifier":[{"system":"리소스식별자(미정)","value":"11840bcb-49a4-4459-9c04-aeeb071e55bb"}],"contained":[{"resourceType":"Organization","id":"14100002","identifier":[{"value":"리소스식별자(미정)"}],"type":[{"coding":[{"system":"미정","code":"미정","display":"병의원"}],"text":"병의원"}],"name":"군보건의료기관"}],"status":"completed","vaccineCode":{"coding":[{"system":"코드체계(미정)","code":"9901","display":"코로나19(화이자-바이오엔텍)"}]},"patient":{"reference":"Patient/10000000","resource":{"resourceType":"Patient","id":"10000000","meta":{"profile":["https://simplifier.net/myhealthway/StructureDefinition/PublicPatient"]},"identifier":[{"type":{"coding":[{"system":"http://myhealthway.go.kr(가칭)","code":"MHID"}]},"system":"미정","value":"10236291"},{"type":{"coding":[{"system":"http://terminology.hl7.org/CodeSystem/v2-0203","code":"NNKOR"}]},"system":"http://mois.go.kr/rnn","value":"0107213******"}],"name":[{"text":"김산"}]}},"occurrenceDateTime":"2021-07-08","performer":[{"actor":{"reference":"Organization/14100002","resource":{"resourceType":"Organization","id":"14100002","identifier":[{"value":"리소스식별자(미정)"}],"type":[{"coding":[{"system":"미정","code":"미정","display":"병의원"}],"text":"병의원"}],"name":"군보건의료기관"}}}],"protocolApplied":[{"doseNumberPositiveInt":2}]}},{"resource":{"resourceType":"Immunization","id":"14000014","meta":{"profile":["https://simplifier.net/myhealthway/StructureDefinition/PublicImmunization"]},"identifier":[{"system":"리소스식별자(미정)","value":"f1de12f2-2d38-44c7-ac13-62baa70bd5c9"}],"contained":[{"resourceType":"Organization","id":"14100002","identifier":[{"value":"리소스식별자(미정)"}],"type":[{"coding":[{"system":"미정","code":"미정","display":"병의원"}],"text":"병의원"}],"name":"군보건의료기관"}],"status":"completed","vaccineCode":{"coding":[{"system":"코드체계(미정)","code":"9901","display":"코로나19(화이자-바이오엔텍)"}]},"patient":{"reference":"Patient/10000000","resource":{"resourceType":"Patient","id":"10000000","meta":{"profile":["https://simplifier.net/myhealthway/StructureDefinition/PublicPatient"]},"identifier":[{"type":{"coding":[{"system":"http://myhealthway.go.kr(가칭)","code":"MHID"}]},"system":"미정","value":"10236291"},{"type":{"coding":[{"system":"http://terminology.hl7.org/CodeSystem/v2-0203","code":"NNKOR"}]},"system":"http://mois.go.kr/rnn","value":"0107213******"}],"name":[{"text":"김산"}]}},"occurrenceDateTime":"2021-12-20","performer":[{"actor":{"reference":"Organization/14100002","resource":{"resourceType":"Organization","id":"14100002","identifier":[{"value":"리소스식별자(미정)"}],"type":[{"coding":[{"system":"미정","code":"미정","display":"병의원"}],"text":"병의원"}],"name":"군보건의료기관"}}}],"protocolApplied":[{"doseNumberPositiveInt":3}]}},{"resource":{"resourceType":"Patient","id":"10000000","meta":{"profile":["https://simplifier.net/myhealthway/StructureDefinition/PublicPatient"]},"identifier":[{"type":{"coding":[{"system":"http://myhealthway.go.kr(가칭)","code":"MHID"}]},"system":"미정","value":"10236291"},{"type":{"coding":[{"system":"http://terminology.hl7.org/CodeSystem/v2-0203","code":"NNKOR"}]},"system":"http://mois.go.kr/rnn","value":"0107213******"}],"name":[{"text":"김산"}]}}],"medicalData":[]}