{"publicData":[{"resource":{"resourceType":"MedicationDispense","id":"16000001","meta":{"profile":["https://simplifier.net/myhealthway/StructureDefinition/PublicMedicationDispense"]},"identifier":[{"system":"리소스식별자(미정)","value":"024bf3f9-44fa-49bd-b34c-79a46e7b2cf0"}],"contained":[{"resourceType":"Organization","id":"16200001","identifier":[{"system":"리소스식별체계(미정)","value":"4f5ccde0-f01d-4d67-902e-a3058e56da27"}],"type":[{"coding":[{"system":"미정","code":"미정","display":"약국"}],"text":"약국"}],"name":"밝은약국","address":[{"text":"서울특별시 서초구 사평대로56길"}]}],"status":"completed","medicationReference":{"reference":"Medication/16100001","resource":{"resourceType":"Medication","id":"16100001","meta":{"profile":["https://simplifier.net/myhealthway/StructureDefinition/PublicMedication"]},"identifier":[{"system":"리소스식별자(미정)","value":"medication1"}],"contained":[{"resourceType":"Substance","id":"163000001","identifier":[{"system":"리소스식별자(미정)","value":"isotretinoin"}]}],"code":{"coding":[{"system":"https://biz.kpis.or.kr/CodeSystem/kdcode","code":"644102260","display":"제로큐탄연질캡슐(이소트레티노인)_(10mg/1캡슐)"}],"text":"제로큐탄연질캡슐(이소트레티노인)_(10mg/1캡슐)"},"ingredient":[{"itemReference":{"reference":"Substance/163000001","resource":{"resourceType":"Substance","id":"163000001","identifier":[{"system":"리소스식별자(미정)","value":"isotretinoin"}],"code":{"coding":[{"system":"https://www.hira.or.kr","code":"178701ACS","display":"isotretinoin"}]}}}}]}},"subject":{"reference":"Patient/10000000","resource":{"resourceType":"Patient","id":"10000000","meta":{"profile":["https://simplifier.net/myhealthway/StructureDefinition/PublicPatient"]},"identifier":[{"type":{"coding":[{"system":"http://myhealthway.go.kr(가칭)","code":"MHID"}]},"system":"미정","value":"10235126"},{"type":{"coding":[{"system":"http://terminology.hl7.org/CodeSystem/v2-0203","code":"NNKOR"}]},"system":"http://mois.go.kr/rnn","value":"0204023******"}],"name":[{"text":"박병현"}]}},"performer":[{"actor":{"reference":"Organization/16200001","resource":{"resourceType":"Organization","id":"16200001","identifier":[{"system":"리소스식별체계(미정)","value":"4f5ccde0-f01d-4d67-902e-a3058e56da27"}],"type":[{"coding":[{"system":"미정","code":"미정","display":"약국"}],"text":"약국"}],"name":"밝은약국","address":[{"text":"서울특별시 서초구 사평대로56길"}]}}}],"daysSupply":{"value":15,"unit":"일","system":"http://unitsofmeasure.org","code":"d"},"whenPrepared":"2025-03-10","dosageInstruction":[{"text":"1캡슐","timing":{"repeat":{"extension":[{"url":"https://simplifier.net/myhealthway/StructureDefinition/TimingforPublicMedicationDispense","valueString":"1"}],"frequency":1,"period":1,"periodUnit":"d"}},"doseAndRate":[{"doseQuantity":{"value":2.0}}]}]}},{"resource":{"resourceType":"MedicationDispense","id":"16000002","meta":{"profile":["https://simplifier.net/myhealthway/StructureDefinition/PublicMedicationDispense"]},"identifier":[{"system":"리소스식별자(미정)","value":"9b41300e-2988-429a-a579-8705067ec726"}],"contained":[{"resourceType":"Organization","id":"16200002","identifier":[{"system":"리소스식별체계(미정)","value":"016ffd4b-5a5f-4f3e-b0a1-48c60cd9aef7"}],"type":[{"coding":[{"system":"미정","code":"미정","display":"약국"}],"text":"약국"}],"name":"아란약국","address":[{"text":"서울특별시 서초구 서운로"}]}],"status":"completed","medicationReference":{"reference":"Medication/16100002","resource":{"resourceType":"Medication","id":"16100002","meta":{"profile":["https://simplifier.net/myhealthway/StructureDefinition/PublicMedication"]},"identifier":[{"system":"리소스식별자(미정)","value":"medication1"}],"contained":[{"resourceType":"Substance","id":"163000001","identifier":[{"system":"리소스식별자(미정)","value":"isotretinoin"}]}],"code":{"coding":[{"system":"https://biz.kpis.or.kr/CodeSystem/kdcode","code":"644102260","display":"제로큐탄연질캡슐(이소트레티노인)_(10mg/1캡슐)"}],"text":"제로큐탄연질캡슐(이소트레티노인)_(10mg/1캡슐)"},"ingredient":[{"itemReference":{"reference":"Substance/163000001","resource":{"resourceType":"Substance","id":"163000001","identifier":[{"system":"리소스식별자(미정)","value":"isotretinoin"}],"code":{"coding":[{"system":"https://www.hira.or.kr","code":"178701ACS","display":"isotretinoin"}]}}}}]}},"subject":{"reference":"Patient/10000000","resource":{"resourceType":"Patient","id":"10000000","meta":{"profile":["https://simplifier.net/myhealthway/StructureDefinition/PublicPatient"]},"identifier":[{"type":{"coding":[{"system":"http://myhealthway.go.kr(가칭)","code":"MHID"}]},"system":"미정","value":"10235126"},{"type":{"coding":[{"system":"http://terminology.hl7.org/CodeSystem/v2-0203","code":"NNKOR"}]},"system":"http://mois.go.kr/rnn","value":"0204023******"}],"name":[{"text":"박병현"}]}},"performer":[{"actor":{"reference":"Organization/16200002","resource":{"resourceType":"Organization","id":"16200002","identifier":[{"system":"리소스식별체계(미정)","value":"016ffd4b-5a5f-4f3e-b0a1-48c60cd9aef7"}],"type":[{"coding":[{"system":"미정","code":"미정","display":"약국"}],"text":"약국"}],"name":"아란약국","address":[{"text":"서울특별시 서초구 서운로"}]}}}],"daysSupply":{"value":15,"unit":"일","system":"http://unitsofmeasure.org","code":"d"},"whenPrepared":"2025-02-10","dosageInstruction":[{"text":"1캡슐","timing":{"repeat":{"extension":[{"url":"https://simplifier.net/myhealthway/StructureDefinition/TimingforPublicMedicationDispense","valueString":"1"}],"frequency":1,"period":1,"periodUnit":"d"}},"doseAndRate":[{"doseQuantity":{"value":2.0}}]}]}},{"resource":{"resourceType":"Medication","id":"16100001","meta":{"profile":["https://simplifier.net/myhealthway/StructureDefinition/PublicMedication"]},"identifier":[{"system":"리소스식별자(미정)","value":"medication1"}],"contained":[{"resourceType":"Substance","id":"163000001","identifier":[{"system":"리소스식별자(미정)","value":"isotretinoin"}],"code":{"coding":[{"system":"https://www.hira.or.kr","code":"178701ACS","display":"isotretinoin"}]}}],"code":{"coding":[{"system":"https://biz.kpis.or.kr/CodeSystem/kdcode","code":"644102260","display":"제로큐탄연질캡슐(이소트레티노인)_(10mg/1캡슐)"}],"text":"제로큐탄연질캡슐(이소트레티노인)_(10mg/1캡슐)"},"ingredient":[{"itemReference":{"reference":"Substance/163000001","resource":{"resourceType":"Substance","id":"163000001","identifier":[{"system":"리소스식별자(미정)","value":"isotretinoin"}],"code":{"coding":[{"system":"https://www.hira.or.kr","code":"178701ACS","display":"isotretinoin"}]}}}}]}},{"resource":{"resourceType":"Medication","id":"16100002","meta":{"profile":["https://simplifier.net/myhealthway/StructureDefinition/PublicMedication"]},"identifier":[{"system":"리소스식별자(미정)","value":"medication1"}],"contained":[{"resourceType":"Substance","id":"163000001","identifier":[{"system":"리소스식별자(미정)","value":"isotretinoin"}],"code":{"coding":[{"system":"https://www.hira.or.kr","code":"178701ACS","display":"isotretinoin"}]}}],"code":{"coding":[{"system":"https://biz.kpis.or.kr/CodeSystem/kdcode","code":"644102260","display":"제로큐탄연질캡슐(이소트레티노인)_(10mg/1캡슐)"}],"text":"제로큐탄연질캡슐(이소트레티노인)_(10mg/1캡슐)"},"ingredient":[{"itemReference":{"reference":"Substance/163000001","resource":{"resourceType":"Substance","id":"163000001","identifier":[{"system":"리소스식별자(미정)","value":"isotretinoin"}],"code":{"coding":[{"system":"https://www.hira.or.kr","code":"178701ACS","display":"isotretinoin"}]}}}}]}},{"resource":{"resourceType":"ExplanationOfBenefit","id":"17000001","meta":{"profile":["https://simplifier.net/myhealthway/StructureDefinition/PublicExplanationOfBenefit"]},"identifier":[{"system":"리소스식별자(미정)","value":"9c99ee7e-7a18-417d-b59d-6e6ab267d5d9"}],"contained":[{"resourceType":"Organization","id":"17100001","type":[{"coding":[{"system":"미정","code":"미정","display":"보험사"}],"text":"보험사"}],"name":"국민건강보험공단"},{"resourceType":"Organization","id":"17100002","type":[{"coding":[{"system":"미정","code":"미정","display":"약국"}],"text":"약국"}],"name":"밝은약국","address":[{"text":"서초구 사평대로56길"}]},{"resourceType":"Coverage","id":"17300001","status":"active","beneficiary":{"reference":"Patient/10000000","resource":{"resourceType":"Patient","id":"10000000","meta":{"profile":["https://simplifier.net/myhealthway/StructureDefinition/PublicPatient"]},"identifier":[{"type":{"coding":[{"system":"http://myhealthway.go.kr(가칭)","code":"MHID"}]},"system":"미정","value":"10235126"},{"type":{"coding":[{"system":"http://terminology.hl7.org/CodeSystem/v2-0203","code":"NNKOR"}]},"system":"http://mois.go.kr/rnn","value":"0204023******"}],"name":[{"text":"박병현"}]}},"payor":[{"reference":"Organization/17100002","resource":{"resourceType":"Organization","id":"17100002","type":[{"coding":[{"system":"미정","code":"미정","display":"약국"}],"text":"약국"}],"name":"밝은약국","address":[{"text":"서초구 사평대로56길"}]}}]}],"status":"active","type":{"coding":[{"system":"http://terminology.hl7.org/CodeSystem/claim-type","code":"pharmacy","display":"pharmacy"}]},"use":"claim","patient":{"reference":"Patient/10000000","resource":{"resourceType":"Patient","id":"10000000","meta":{"profile":["https://simplifier.net/myhealthway/StructureDefinition/PublicPatient"]},"identifier":[{"type":{"coding":[{"system":"http://myhealthway.go.kr(가칭)","code":"MHID"}]},"system":"미정","value":"10235126"},{"type":{"coding":[{"system":"http://terminology.hl7.org/CodeSystem/v2-0203","code":"NNKOR"}]},"system":"http://mois.go.kr/rnn","value":"0204023******"}],"name":[{"text":"박병현"}]}},"billablePeriod":{"start":"2025-03-10"},"created":"2025-03-10","insurer":{"reference":"Organization/17100001","resource":{"resourceType":"Organization","id":"17100001","type":[{"coding":[{"system":"미정","code":"미정","display":"보험사"}],"text":"보험사"}],"name":"국민건강보험공단"}},"provider":{"reference":"Organization/17100002","resource":{"resourceType":"Organization","id":"17100002","type":[{"coding":[{"system":"미정","code":"미정","display":"약국"}],"text":"약국"}],"name":"밝은약국","address":[{"text":"서초구 사평대로56길"}]}},"outcome":"complete","supportingInfo":[{"sequence":1,"category":{"coding":[{"system":"http://terminology.hl7.org/CodeSystem/claiminformationcategory","code":"hospitalized","display":"Hosptialized"}]},"code":{"text":"1"}},{"sequence":2,"category":{"coding":[{"system":"http://terminology.hl7.org/CodeSystem/claiminformationcategory","code":"related","display":"Related Service"}]},"code":{"text":"1"}},{"sequence":3,"category":{"coding":[{"system":"http://terminology.hl7.org/CodeSystem/claiminformationcategory","code":"other","display":"Other"}]},"code":{"text":"15"}}],"total":[{"category":{"coding":[{"system":"http://terminology.hl7.org/CodeSystem/adjudication","code":"copay","display":"CoPay"}]},"amount":{"value":5600,"currency":"KRW"}},{"category":{"coding":[{"system":"http://terminology.hl7.org/CodeSystem/adjudication","code":"benefit","display":"Benefit Amount"}]},"amount":{"value":13390,"currency":"KRW"}}]}},{"resource":{"resourceType":"ExplanationOfBenefit","id":"17000002","meta":{"profile":["https://simplifier.net/myhealthway/StructureDefinition/PublicExplanationOfBenefit"]},"identifier":[{"system":"리소스식별자(미정)","value":"66d56dca-4baf-46a2-955d-8a76031022f3"}],"contained":[{"resourceType":"Organization","id":"17100001","type":[{"coding":[{"system":"미정","code":"미정","display":"보험사"}],"text":"보험사"}],"name":"국민건강보험공단"},{"resourceType":"Organization","id":"17100002","type":[{"coding":[{"system":"미정","code":"미정","display":"병의원"}],"text":"병의원"}],"name":"인현피부과의원","address":[{"text":"서초구 서운로"}]},{"resourceType":"Coverage","id":"17300001","status":"active","beneficiary":{"reference":"Patient/10000000","resource":{"resourceType":"Patient","id":"10000000","meta":{"profile":["https://simplifier.net/myhealthway/StructureDefinition/PublicPatient"]},"identifier":[{"type":{"coding":[{"system":"http://myhealthway.go.kr(가칭)","code":"MHID"}]},"system":"미정","value":"10235126"},{"type":{"coding":[{"system":"http://terminology.hl7.org/CodeSystem/v2-0203","code":"NNKOR"}]},"system":"http://mois.go.kr/rnn","value":"0204023******"}],"name":[{"text":"박병현"}]}},"payor":[{"reference":"Organization/17100002","resource":{"resourceType":"Organization","id":"17100002","type":[{"coding":[{"system":"미정","code":"미정","display":"병의원"}],"text":"병의원"}],"name":"인현피부과의원","address":[{"text":"서초구 서운로"}]}}]}],"status":"active","type":{"coding":[{"system":"http://terminology.hl7.org/CodeSystem/claim-type","code":"institutional","display":"institutional"}]},"use":"claim","patient":{"reference":"Patient/10000000","resource":{"resourceType":"Patient","id":"10000000","meta":{"profile":["https://simplifier.net/myhealthway/StructureDefinition/PublicPatient"]},"identifier":[{"type":{"coding":[{"system":"http://myhealthway.go.kr(가칭)","code":"MHID"}]},"system":"미정","value":"10235126"},{"type":{"coding":[{"system":"http://terminology.hl7.org/CodeSystem/v2-0203","code":"NNKOR"}]},"system":"http://mois.go.kr/rnn","value":"0204023******"}],"name":[{"text":"박병현"}]}},"billablePeriod":{"start":"2025-03-10"},"created":"2025-03-10","insurer":{"reference":"Organization/17100001","resource":{"resourceType":"Organization","id":"17100001","type":[{"coding":[{"system":"미정","code":"미정","display":"보험사"}],"text":"보험사"}],"name":"국민건강보험공단"}},"provider":{"reference":"Organization/17100002","resource":{"resourceType":"Organization","id":"17100002","type":[{"coding":[{"system":"미정","code":"미정","display":"병의원"}],"text":"병의원"}],"name":"인현피부과의원","address":[{"text":"서초구 서운로"}]}},"outcome":"complete","supportingInfo":[{"sequence":1,"category":{"coding":[{"system":"http://terminology.hl7.org/CodeSystem/claiminformationcategory","code":"hospitalized","display":"Hosptialized"}]},"code":{"text":"1"}},{"sequence":2,"category":{"coding":[{"system":"http://terminology.hl7.org/CodeSystem/claiminformationcategory","code":"related","display":"Related Service"}]},"code":{"text":"1"}},{"sequence":3,"category":{"coding":[{"system":"http://terminology.hl7.org/CodeSystem/claiminformationcategory","code":"other","display":"Other"}]},"code":{"text":"1"}}],"total":[{"category":{"coding":[{"system":"http://terminology.hl7.org/CodeSystem/adjudication","code":"copay","display":"CoPay"}]},"amount":{"value":3900,"currency":"KRW"}},{"category":{"coding":[{"system":"http://terminology.hl7.org/CodeSystem/adjudication","code":"benefit","display":"Benefit Amount"}]},"amount":{"value":9260,"currency":"KRW"}}]}},{"resource":{"resourceType":"ExplanationOfBenefit","id":"17000004","meta":{"profile":["https://simplifier.net/myhealthway/StructureDefinition/PublicExplanationOfBenefit"]},"identifier":[{"system":"리소스식별자(미정)","value":"6d7ca9ea-0b5f-441c-8131-498c3e16c69a"}],"contained":[{"resourceType":"Organization","id":"17100001","type":[{"coding":[{"system":"미정","code":"미정","display":"보험사"}],"text":"보험사"}],"name":"국민건강보험공단"},{"resourceType":"Organization","id":"17100002","type":[{"coding":[{"system":"미정","code":"미정","display":"약국"}],"text":"약국"}],"name":"아란약국","address":[{"text":"서초구 서운로"}]},{"resourceType":"Coverage","id":"17300001","status":"active","beneficiary":{"reference":"Patient/10000000","resource":{"resourceType":"Patient","id":"10000000","meta":{"profile":["https://simplifier.net/myhealthway/StructureDefinition/PublicPatient"]},"identifier":[{"type":{"coding":[{"system":"http://myhealthway.go.kr(가칭)","code":"MHID"}]},"system":"미정","value":"10235126"},{"type":{"coding":[{"system":"http://terminology.hl7.org/CodeSystem/v2-0203","code":"NNKOR"}]},"system":"http://mois.go.kr/rnn","value":"0204023******"}],"name":[{"text":"박병현"}]}},"payor":[{"reference":"Organization/17100002","resource":{"resourceType":"Organization","id":"17100002","type":[{"coding":[{"system":"미정","code":"미정","display":"약국"}],"text":"약국"}],"name":"아란약국","address":[{"text":"서초구 서운로"}]}}]}],"status":"active","type":{"coding":[{"system":"http://terminology.hl7.org/CodeSystem/claim-type","code":"pharmacy","display":"pharmacy"}]},"use":"claim","patient":{"reference":"Patient/10000000","resource":{"resourceType":"Patient","id":"10000000","meta":{"profile":["https://simplifier.net/myhealthway/StructureDefinition/PublicPatient"]},"identifier":[{"type":{"coding":[{"system":"http://myhealthway.go.kr(가칭)","code":"MHID"}]},"system":"미정","value":"10235126"},{"type":{"coding":[{"system":"http://terminology.hl7.org/CodeSystem/v2-0203","code":"NNKOR"}]},"system":"http://mois.go.kr/rnn","value":"0204023******"}],"name":[{"text":"박병현"}]}},"billablePeriod":{"start":"2025-02-10"},"created":"2025-02-10","insurer":{"reference":"Organization/17100001","resource":{"resourceType":"Organization","id":"17100001","type":[{"coding":[{"system":"미정","code":"미정","display":"보험사"}],"text":"보험사"}],"name":"국민건강보험공단"}},"provider":{"reference":"Organization/17100002","resource":{"resourceType":"Organization","id":"17100002","type":[{"coding":[{"system":"미정","code":"미정","display":"약국"}],"text":"약국"}],"name":"아란약국","address":[{"text":"서초구 서운로"}]}},"outcome":"complete","supportingInfo":[{"sequence":1,"category":{"coding":[{"system":"http://terminology.hl7.org/CodeSystem/claiminformationcategory","code":"hospitalized","display":"Hosptialized"}]},"code":{"text":"1"}},{"sequence":2,"category":{"coding":[{"system":"http://terminology.hl7.org/CodeSystem/claiminformationcategory","code":"related","display":"Related Service"}]},"code":{"text":"1"}},{"sequence":3,"category":{"coding":[{"system":"http://terminology.hl7.org/CodeSystem/claiminformationcategory","code":"other","display":"Other"}]},"code":{"text":"15"}}],"total":[{"category":{"coding":[{"system":"http://terminology.hl7.org/CodeSystem/adjudication","code":"copay","display":"CoPay"}]},"amount":{"value":5600,"currency":"KRW"}},{"category":{"coding":[{"system":"http://terminology.hl7.org/CodeSystem/adjudication","code":"benefit","display":"Benefit Amount"}]},"amount":{"value":13390,"currency":"KRW"}}]}},{"resource":{"resourceType":"ExplanationOfBenefit","id":"17000003","meta":{"profile":["https://simplifier.net/myhealthway/StructureDefinition/PublicExplanationOfBenefit"]},"identifier":[{"system":"리소스식별자(미정)","value":"93cd3ef4-dcf7-4520-a223-f0b07414dccb"}],"contained":[{"resourceType":"Organization","id":"17100001","type":[{"coding":[{"system":"미정","code":"미정","display":"보험사"}],"text":"보험사"}],"name":"국민건강보험공단"},{"resourceType":"Organization","id":"17100002","type":[{"coding":[{"system":"미정","code":"미정","display":"병의원"}],"text":"병의원"}],"name":"인현피부과의원","address":[{"text":"서초구 서운로"}]},{"resourceType":"Coverage","id":"17300001","status":"active","beneficiary":{"reference":"Patient/10000000","resource":{"resourceType":"Patient","id":"10000000","meta":{"profile":["https://simplifier.net/myhealthway/StructureDefinition/PublicPatient"]},"identifier":[{"type":{"coding":[{"system":"http://myhealthway.go.kr(가칭)","code":"MHID"}]},"system":"미정","value":"10235126"},{"type":{"coding":[{"system":"http://terminology.hl7.org/CodeSystem/v2-0203","code":"NNKOR"}]},"system":"http://mois.go.kr/rnn","value":"0204023******"}],"name":[{"text":"박병현"}]}},"payor":[{"reference":"Organization/17100002","resource":{"resourceType":"Organization","id":"17100002","type":[{"coding":[{"system":"미정","code":"미정","display":"병의원"}],"text":"병의원"}],"name":"인현피부과의원","address":[{"text":"서초구 서운로"}]}}]}],"status":"active","type":{"coding":[{"system":"http://terminology.hl7.org/CodeSystem/claim-type","code":"institutional","display":"institutional"}]},"use":"claim","patient":{"reference":"Patient/10000000","resource":{"resourceType":"Patient","id":"10000000","meta":{"profile":["https://simplifier.net/myhealthway/StructureDefinition/PublicPatient"]},"identifier":[{"type":{"coding":[{"system":"http://myhealthway.go.kr(가칭)","code":"MHID"}]},"system":"미정","value":"10235126"},{"type":{"coding":[{"system":"http://terminology.hl7.org/CodeSystem/v2-0203","code":"NNKOR"}]},"system":"http://mois.go.kr/rnn","value":"0204023******"}],"name":[{"text":"박병현"}]}},"billablePeriod":{"start":"2025-02-10"},"created":"2025-02-10","insurer":{"reference":"Organization/17100001","resource":{"resourceType":"Organization","id":"17100001","type":[{"coding":[{"system":"미정","code":"미정","display":"보험사"}],"text":"보험사"}],"name":"국민건강보험공단"}},"provider":{"reference":"Organization/17100002","resource":{"resourceType":"Organization","id":"17100002","type":[{"coding":[{"system":"미정","code":"미정","display":"병의원"}],"text":"병의원"}],"name":"인현피부과의원","address":[{"text":"서초구 서운로"}]}},"outcome":"complete","supportingInfo":[{"sequence":1,"category":{"coding":[{"system":"http://terminology.hl7.org/CodeSystem/claiminformationcategory","code":"hospitalized","display":"Hosptialized"}]},"code":{"text":"1"}},{"sequence":2,"category":{"coding":[{"system":"http://terminology.hl7.org/CodeSystem/claiminformationcategory","code":"related","display":"Related Service"}]},"code":{"text":"1"}},{"sequence":3,"category":{"coding":[{"system":"http://terminology.hl7.org/CodeSystem/claiminformationcategory","code":"other","display":"Other"}]},"code":{"text":"1"}}],"total":[{"category":{"coding":[{"system":"http://terminology.hl7.org/CodeSystem/adjudication","code":"copay","display":"CoPay"}]},"amount":{"value":5500,"currency":"KRW"}},{"category":{"coding":[{"system":"http://terminology.hl7.org/CodeSystem/adjudication","code":"benefit","display":"Benefit Amount"}]},"amount":{"value":12910,"currency":"KRW"}}]}},{"resource":{"resourceType":"Immunization","id":"14000001","meta":{"profile":["https://simplifier.net/myhealthway/StructureDefinition/PublicImmunization"]},"identifier":[{"system":"리소스식별자(미정)","value":"e6cd38cd-173e-4452-acf1-ead26c6459ae"}],"contained":[{"resourceType":"Organization","id":"14100002","identifier":[{"value":"리소스식별자(미정)"}],"type":[{"coding":[{"system":"미정","code":"미정","display":"병의원"}],"text":"병의원"}],"name":"서울특별시영등포구보건소"}],"status":"completed","vaccineCode":{"coding":[{"system":"코드체계(미정)","code":"0202","display":"B형간염(유전자재조합)"}]},"patient":{"reference":"Patient/10000000","resource":{"resourceType":"Patient","id":"10000000","meta":{"profile":["https://simplifier.net/myhealthway/StructureDefinition/PublicPatient"]},"identifier":[{"type":{"coding":[{"system":"http://myhealthway.go.kr(가칭)","code":"MHID"}]},"system":"미정","value":"10235126"},{"type":{"coding":[{"system":"http://terminology.hl7.org/CodeSystem/v2-0203","code":"NNKOR"}]},"system":"http://mois.go.kr/rnn","value":"0204023******"}],"name":[{"text":"박병현"}]}},"occurrenceDateTime":"2007-05-01","performer":[{"actor":{"reference":"Organization/14100002","resource":{"resourceType":"Organization","id":"14100002","identifier":[{"value":"리소스식별자(미정)"}],"type":[{"coding":[{"system":"미정","code":"미정","display":"병의원"}],"text":"병의원"}],"name":"서울특별시영등포구보건소"}}}],"protocolApplied":[{"doseNumberPositiveInt":1}]}},{"resource":{"resourceType":"Immunization","id":"14000002","meta":{"profile":["https://simplifier.net/myhealthway/StructureDefinition/PublicImmunization"]},"identifier":[{"system":"리소스식별자(미정)","value":"ba58124d-185b-446d-b682-b2f618c05de6"}],"contained":[{"resourceType":"Organization","id":"14100002","identifier":[{"value":"리소스식별자(미정)"}],"type":[{"coding":[{"system":"미정","code":"미정","display":"병의원"}],"text":"병의원"}],"name":"서울특별시영등포구보건소"}],"status":"completed","vaccineCode":{"coding":[{"system":"코드체계(미정)","code":"0202","display":"B형간염(유전자재조합)"}]},"patient":{"reference":"Patient/10000000","resource":{"resourceType":"Patient","id":"10000000","meta":{"profile":["https://simplifier.net/myhealthway/StructureDefinition/PublicPatient"]},"identifier":[{"type":{"coding":[{"system":"http://myhealthway.go.kr(가칭)","code":"MHID"}]},"system":"미정","value":"10235126"},{"type":{"coding":[{"system":"http://terminology.hl7.org/CodeSystem/v2-0203","code":"NNKOR"}]},"system":"http://mois.go.kr/rnn","value":"0204023******"}],"name":[{"text":"박병현"}]}},"occurrenceDateTime":"2007-06-11","performer":[{"actor":{"reference":"Organization/14100002","resource":{"resourceType":"Organization","id":"14100002","identifier":[{"value":"리소스식별자(미정)"}],"type":[{"coding":[{"system":"미정","code":"미정","display":"병의원"}],"text":"병의원"}],"name":"서울특별시영등포구보건소"}}}],"protocolApplied":[{"doseNumberPositiveInt":2}]}},{"resource":{"resourceType":"Immunization","id":"14000003","meta":{"profile":["https://simplifier.net/myhealthway/StructureDefinition/PublicImmunization"]},"identifier":[{"system":"리소스식별자(미정)","value":"6b2f3c48-e34a-4607-8cbb-1add1907e96b"}],"contained":[{"resourceType":"Organization","id":"14100002","identifier":[{"value":"리소스식별자(미정)"}],"type":[{"coding":[{"system":"미정","code":"미정","display":"병의원"}],"text":"병의원"}],"name":"서울특별시영등포구보건소"}],"status":"completed","vaccineCode":{"coding":[{"system":"코드체계(미정)","code":"0202","display":"B형간염(유전자재조합)"}]},"patient":{"reference":"Patient/10000000","resource":{"resourceType":"Patient","id":"10000000","meta":{"profile":["https://simplifier.net/myhealthway/StructureDefinition/PublicPatient"]},"identifier":[{"type":{"coding":[{"system":"http://myhealthway.go.kr(가칭)","code":"MHID"}]},"system":"미정","value":"10235126"},{"type":{"coding":[{"system":"http://terminology.hl7.org/CodeSystem/v2-0203","code":"NNKOR"}]},"system":"http://mois.go.kr/rnn","value":"0204023******"}],"name":[{"text":"박병현"}]}},"occurrenceDateTime":"2007-11-20","performer":[{"actor":{"reference":"Organization/14100002","resource":{"resourceType":"Organization","id":"14100002","identifier":[{"value":"리소스식별자(미정)"}],"type":[{"coding":[{"system":"미정","code":"미정","display":"병의원"}],"text":"병의원"}],"name":"서울특별시영등포구보건소"}}}],"protocolApplied":[{"doseNumberPositiveInt":3}]}},{"resource":{"resourceType":"Immunization","id":"14000004","meta":{"profile":["https://simplifier.net/myhealthway/StructureDefinition/PublicImmunization"]},"identifier":[{"system":"리소스식별자(미정)","value":"6afeaf35-3b41-4761-8c25-ee5cd93bdc31"}],"contained":[{"resourceType":"Organization","id":"14100002","identifier":[{"value":"리소스식별자(미정)"}],"type":[{"coding":[{"system":"미정","code":"미정","display":"병의원"}],"text":"병의원"}],"name":"경기도평택시보건소"}],"status":"completed","vaccineCode":{"coding":[{"system":"코드체계(미정)","code":"0301","display":"디프테리아, 파상풍, 백일해(DTaP)"}]},"patient":{"reference":"Patient/10000000","resource":{"resourceType":"Patient","id":"10000000","meta":{"profile":["https://simplifier.net/myhealthway/StructureDefinition/PublicPatient"]},"identifier":[{"type":{"coding":[{"system":"http://myhealthway.go.kr(가칭)","code":"MHID"}]},"system":"미정","value":"10235126"},{"type":{"coding":[{"system":"http://terminology.hl7.org/CodeSystem/v2-0203","code":"NNKOR"}]},"system":"http://mois.go.kr/rnn","value":"0204023******"}],"name":[{"text":"박병현"}]}},"occurrenceDateTime":"2002-08-13","performer":[{"actor":{"reference":"Organization/14100002","resource":{"resourceType":"Organization","id":"14100002","identifier":[{"value":"리소스식별자(미정)"}],"type":[{"coding":[{"system":"미정","code":"미정","display":"병의원"}],"text":"병의원"}],"name":"경기도평택시보건소"}}}],"protocolApplied":[{"doseNumberPositiveInt":2}]}},{"resource":{"resourceType":"Immunization","id":"14000005","meta":{"profile":["https://simplifier.net/myhealthway/StructureDefinition/PublicImmunization"]},"identifier":[{"system":"리소스식별자(미정)","value":"da690fcd-ecec-4f1b-b336-6d5fa23f8165"}],"contained":[{"resourceType":"Organization","id":"14100002","identifier":[{"value":"리소스식별자(미정)"}],"type":[{"coding":[{"system":"미정","code":"미정","display":"병의원"}],"text":"병의원"}],"name":"경기도평택시보건소"}],"status":"completed","vaccineCode":{"coding":[{"system":"코드체계(미정)","code":"0301","display":"디프테리아, 파상풍, 백일해(DTaP)"}]},"patient":{"reference":"Patient/10000000","resource":{"resourceType":"Patient","id":"10000000","meta":{"profile":["https://simplifier.net/myhealthway/StructureDefinition/PublicPatient"]},"identifier":[{"type":{"coding":[{"system":"http://myhealthway.go.kr(가칭)","code":"MHID"}]},"system":"미정","value":"10235126"},{"type":{"coding":[{"system":"http://terminology.hl7.org/CodeSystem/v2-0203","code":"NNKOR"}]},"system":"http://mois.go.kr/rnn","value":"0204023******"}],"name":[{"text":"박병현"}]}},"occurrenceDateTime":"2004-08-05","performer":[{"actor":{"reference":"Organization/14100002","resource":{"resourceType":"Organization","id":"14100002","identifier":[{"value":"리소스식별자(미정)"}],"type":[{"coding":[{"system":"미정","code":"미정","display":"병의원"}],"text":"병의원"}],"name":"경기도평택시보건소"}}}],"protocolApplied":[{"doseNumberPositiveInt":4}]}},{"resource":{"resourceType":"Immunization","id":"14000006","meta":{"profile":["https://simplifier.net/myhealthway/StructureDefinition/PublicImmunization"]},"identifier":[{"system":"리소스식별자(미정)","value":"61a9ac0b-6caf-4bd0-91f5-722675be9355"}],"contained":[{"resourceType":"Organization","id":"14100002","identifier":[{"value":"리소스식별자(미정)"}],"type":[{"coding":[{"system":"미정","code":"미정","display":"병의원"}],"text":"병의원"}],"name":"서울특별시영등포구보건소"}],"status":"completed","vaccineCode":{"coding":[{"system":"코드체계(미정)","code":"0301","display":"디프테리아, 파상풍, 백일해(DTaP)"}]},"patient":{"reference":"Patient/10000000","resource":{"resourceType":"Patient","id":"10000000","meta":{"profile":["https://simplifier.net/myhealthway/StructureDefinition/PublicPatient"]},"identifier":[{"type":{"coding":[{"system":"http://myhealthway.go.kr(가칭)","code":"MHID"}]},"system":"미정","value":"10235126"},{"type":{"coding":[{"system":"http://terminology.hl7.org/CodeSystem/v2-0203","code":"NNKOR"}]},"system":"http://mois.go.kr/rnn","value":"0204023******"}],"name":[{"text":"박병현"}]}},"occurrenceDateTime":"2007-02-28","performer":[{"actor":{"reference":"Organization/14100002","resource":{"resourceType":"Organization","id":"14100002","identifier":[{"value":"리소스식별자(미정)"}],"type":[{"coding":[{"system":"미정","code":"미정","display":"병의원"}],"text":"병의원"}],"name":"서울특별시영등포구보건소"}}}],"protocolApplied":[{"doseNumberPositiveInt":5}]}},{"resource":{"resourceType":"Immunization","id":"14000007","meta":{"profile":["https://simplifier.net/myhealthway/StructureDefinition/PublicImmunization"]},"identifier":[{"system":"리소스식별자(미정)","value":"784c4279-e627-4118-a492-e058de71d581"}],"contained":[{"resourceType":"Organization","id":"14100002","identifier":[{"value":"리소스식별자(미정)"}],"type":[{"coding":[{"system":"미정","code":"미정","display":"병의원"}],"text":"병의원"}],"name":"서초아가페의원"}],"status":"completed","vaccineCode":{"coding":[{"system":"코드체계(미정)","code":"0306","display":"디프테리아, 파상풍, 백일해(Tdap)"}]},"patient":{"reference":"Patient/10000000","resource":{"resourceType":"Patient","id":"10000000","meta":{"profile":["https://simplifier.net/myhealthway/StructureDefinition/PublicPatient"]},"identifier":[{"type":{"coding":[{"system":"http://myhealthway.go.kr(가칭)","code":"MHID"}]},"system":"미정","value":"10235126"},{"type":{"coding":[{"system":"http://terminology.hl7.org/CodeSystem/v2-0203","code":"NNKOR"}]},"system":"http://mois.go.kr/rnn","value":"0204023******"}],"name":[{"text":"박병현"}]}},"occurrenceDateTime":"2014-05-22","performer":[{"actor":{"reference":"Organization/14100002","resource":{"resourceType":"Organization","id":"14100002","identifier":[{"value":"리소스식별자(미정)"}],"type":[{"coding":[{"system":"미정","code":"미정","display":"병의원"}],"text":"병의원"}],"name":"서초아가페의원"}}}],"protocolApplied":[{"doseNumberPositiveInt":6}]}},{"resource":{"resourceType":"Immunization","id":"14000008","meta":{"profile":["https://simplifier.net/myhealthway/StructureDefinition/PublicImmunization"]},"identifier":[{"system":"리소스식별자(미정)","value":"a5032d8d-3872-4986-a820-ba261f30d9f6"}],"contained":[{"resourceType":"Organization","id":"14100002","identifier":[{"value":"리소스식별자(미정)"}],"type":[{"coding":[{"system":"미정","code":"미정","display":"병의원"}],"text":"병의원"}],"name":"경기도평택시보건소"}],"status":"completed","vaccineCode":{"coding":[{"system":"코드체계(미정)","code":"0401","display":"폴리오(경구용)"}]},"patient":{"reference":"Patient/10000000","resource":{"resourceType":"Patient","id":"10000000","meta":{"profile":["https://simplifier.net/myhealthway/StructureDefinition/PublicPatient"]},"identifier":[{"type":{"coding":[{"system":"http://myhealthway.go.kr(가칭)","code":"MHID"}]},"system":"미정","value":"10235126"},{"type":{"coding":[{"system":"http://terminology.hl7.org/CodeSystem/v2-0203","code":"NNKOR"}]},"system":"http://mois.go.kr/rnn","value":"0204023******"}],"name":[{"text":"박병현"}]}},"occurrenceDateTime":"2002-08-13","performer":[{"actor":{"reference":"Organization/14100002","resource":{"resourceType":"Organization","id":"14100002","identifier":[{"value":"리소스식별자(미정)"}],"type":[{"coding":[{"system":"미정","code":"미정","display":"병의원"}],"text":"병의원"}],"name":"경기도평택시보건소"}}}],"protocolApplied":[{"doseNumberPositiveInt":2}]}},{"resource":{"resourceType":"Immunization","id":"14000009","meta":{"profile":["https://simplifier.net/myhealthway/StructureDefinition/PublicImmunization"]},"identifier":[{"system":"리소스식별자(미정)","value":"b1859ee1-862d-4c8a-bfd3-e72f6ec6e3a8"}],"contained":[{"resourceType":"Organization","id":"14100002","identifier":[{"value":"리소스식별자(미정)"}],"type":[{"coding":[{"system":"미정","code":"미정","display":"병의원"}],"text":"병의원"}],"name":"서울특별시영등포구보건소"}],"status":"completed","vaccineCode":{"coding":[{"system":"코드체계(미정)","code":"0402","display":"폴리오(주사용)"}]},"patient":{"reference":"Patient/10000000","resource":{"resourceType":"Patient","id":"10000000","meta":{"profile":["https://simplifier.net/myhealthway/StructureDefinition/PublicPatient"]},"identifier":[{"type":{"coding":[{"system":"http://myhealthway.go.kr(가칭)","code":"MHID"}]},"system":"미정","value":"10235126"},{"type":{"coding":[{"system":"http://terminology.hl7.org/CodeSystem/v2-0203","code":"NNKOR"}]},"system":"http://mois.go.kr/rnn","value":"0204023******"}],"name":[{"text":"박병현"}]}},"occurrenceDateTime":"2007-02-28","performer":[{"actor":{"reference":"Organization/14100002","resource":{"resourceType":"Organization","id":"14100002","identifier":[{"value":"리소스식별자(미정)"}],"type":[{"coding":[{"system":"미정","code":"미정","display":"병의원"}],"text":"병의원"}],"name":"서울특별시영등포구보건소"}}}],"protocolApplied":[{"doseNumberPositiveInt":4}]}},{"resource":{"resourceType":"Immunization","id":"14000010","meta":{"profile":["https://simplifier.net/myhealthway/StructureDefinition/PublicImmunization"]},"identifier":[{"system":"리소스식별자(미정)","value":"5cbe3039-37a8-4948-bed0-dd10df415575"}],"contained":[{"resourceType":"Organization","id":"14100002","identifier":[{"value":"리소스식별자(미정)"}],"type":[{"coding":[{"system":"미정","code":"미정","display":"병의원"}],"text":"병의원"}],"name":"서울특별시영등포구보건소"}],"status":"completed","vaccineCode":{"coding":[{"system":"코드체계(미정)","code":"0501","display":"홍역, 유행성이하선염, 풍진(MMR)"}]},"patient":{"reference":"Patient/10000000","resource":{"resourceType":"Patient","id":"10000000","meta":{"profile":["https://simplifier.net/myhealthway/StructureDefinition/PublicPatient"]},"identifier":[{"type":{"coding":[{"system":"http://myhealthway.go.kr(가칭)","code":"MHID"}]},"system":"미정","value":"10235126"},{"type":{"coding":[{"system":"http://terminology.hl7.org/CodeSystem/v2-0203","code":"NNKOR"}]},"system":"http://mois.go.kr/rnn","value":"0204023******"}],"name":[{"text":"박병현"}]}},"occurrenceDateTime":"2007-02-01","performer":[{"actor":{"reference":"Organization/14100002","resource":{"resourceType":"Organization","id":"14100002","identifier":[{"value":"리소스식별자(미정)"}],"type":[{"coding":[{"system":"미정","code":"미정","display":"병의원"}],"text":"병의원"}],"name":"서울특별시영등포구보건소"}}}],"protocolApplied":[{"doseNumberPositiveInt":2}]}},{"resource":{"resourceType":"Immunization","id":"14000011","meta":{"profile":["https://simplifier.net/myhealthway/StructureDefinition/PublicImmunization"]},"identifier":[{"system":"리소스식별자(미정)","value":"f5817808-44d1-4a2f-ac72-b52ed568a43e"}],"contained":[{"resourceType":"Organization","id":"14100002","identifier":[{"value":"리소스식별자(미정)"}],"type":[{"coding":[{"system":"미정","code":"미정","display":"병의원"}],"text":"병의원"}],"name":"군보건의료기관"}],"status":"completed","vaccineCode":{"coding":[{"system":"코드체계(미정)","code":"0501","display":"홍역, 유행성이하선염, 풍진(MMR)"}]},"patient":{"reference":"Patient/10000000","resource":{"resourceType":"Patient","id":"10000000","meta":{"profile":["https://simplifier.net/myhealthway/StructureDefinition/PublicPatient"]},"identifier":[{"type":{"coding":[{"system":"http://myhealthway.go.kr(가칭)","code":"MHID"}]},"system":"미정","value":"10235126"},{"type":{"coding":[{"system":"http://terminology.hl7.org/CodeSystem/v2-0203","code":"NNKOR"}]},"system":"http://mois.go.kr/rnn","value":"0204023******"}],"name":[{"text":"박병현"}]}},"occurrenceDateTime":"2022-12-05","performer":[{"actor":{"reference":"Organization/14100002","resource":{"resourceType":"Organization","id":"14100002","identifier":[{"value":"리소스식별자(미정)"}],"type":[{"coding":[{"system":"미정","code":"미정","display":"병의원"}],"text":"병의원"}],"name":"군보건의료기관"}}}],"protocolApplied":[{"doseNumberPositiveInt":2}]}},{"resource":{"resourceType":"Immunization","id":"14000012","meta":{"profile":["https://simplifier.net/myhealthway/StructureDefinition/PublicImmunization"]},"identifier":[{"system":"리소스식별자(미정)","value":"f5506bdc-2cfb-4156-a3c7-9ae710b0a5fc"}],"contained":[{"resourceType":"Organization","id":"14100002","identifier":[{"value":"리소스식별자(미정)"}],"type":[{"coding":[{"system":"미정","code":"미정","display":"병의원"}],"text":"병의원"}],"name":"경상북도예천군보건소"}],"status":"completed","vaccineCode":{"coding":[{"system":"코드체계(미정)","code":"0601","display":"일본뇌염(쥐뇌조직유래 불활성화 백신)"}]},"patient":{"reference":"Patient/10000000","resource":{"resourceType":"Patient","id":"10000000","meta":{"profile":["https://simplifier.net/myhealthway/StructureDefinition/PublicPatient"]},"identifier":[{"type":{"coding":[{"system":"http://myhealthway.go.kr(가칭)","code":"MHID"}]},"system":"미정","value":"10235126"},{"type":{"coding":[{"system":"http://terminology.hl7.org/CodeSystem/v2-0203","code":"NNKOR"}]},"system":"http://mois.go.kr/rnn","value":"0204023******"}],"name":[{"text":"박병현"}]}},"occurrenceDateTime":"2003-07-11","performer":[{"actor":{"reference":"Organization/14100002","resource":{"resourceType":"Organization","id":"14100002","identifier":[{"value":"리소스식별자(미정)"}],"type":[{"coding":[{"system":"미정","code":"미정","display":"병의원"}],"text":"병의원"}],"name":"경상북도예천군보건소"}}}],"protocolApplied":[{"doseNumberPositiveInt":1}]}},{"resource":{"resourceType":"Immunization","id":"14000013","meta":{"profile":["https://simplifier.net/myhealthway/StructureDefinition/PublicImmunization"]},"identifier":[{"system":"리소스식별자(미정)","value":"fb0d4957-6447-4318-9b25-11302b9b60f8"}],"contained":[{"resourceType":"Organization","id":"14100002","identifier":[{"value":"리소스식별자(미정)"}],"type":[{"coding":[{"system":"미정","code":"미정","display":"병의원"}],"text":"병의원"}],"name":"서울특별시영등포구보건소"}],"status":"completed","vaccineCode":{"coding":[{"system":"코드체계(미정)","code":"0601","display":"일본뇌염(쥐뇌조직유래 불활성화 백신)"}]},"patient":{"reference":"Patient/10000000","resource":{"resourceType":"Patient","id":"10000000","meta":{"profile":["https://simplifier.net/myhealthway/StructureDefinition/PublicPatient"]},"identifier":[{"type":{"coding":[{"system":"http://myhealthway.go.kr(가칭)","code":"MHID"}]},"system":"미정","value":"10235126"},{"type":{"coding":[{"system":"http://terminology.hl7.org/CodeSystem/v2-0203","code":"NNKOR"}]},"system":"http://mois.go.kr/rnn","value":"0204023******"}],"name":[{"text":"박병현"}]}},"occurrenceDateTime":"2008-07-09","performer":[{"actor":{"reference":"Organization/14100002","resource":{"resourceType":"Organization","id":"14100002","identifier":[{"value":"리소스식별자(미정)"}],"type":[{"coding":[{"system":"미정","code":"미정","display":"병의원"}],"text":"병의원"}],"name":"서울특별시영등포구보건소"}}}],"protocolApplied":[{"doseNumberPositiveInt":4}]}},{"resource":{"resourceType":"Immunization","id":"14000014","meta":{"profile":["https://simplifier.net/myhealthway/StructureDefinition/PublicImmunization"]},"identifier":[{"system":"리소스식별자(미정)","value":"8877cff0-4b7b-4999-841b-33b314fd1eee"}],"contained":[{"resourceType":"Organization","id":"14100002","identifier":[{"value":"리소스식별자(미정)"}],"type":[{"coding":[{"system":"미정","code":"미정","display":"병의원"}],"text":"병의원"}],"name":"서초아가페의원"}],"status":"completed","vaccineCode":{"coding":[{"system":"코드체계(미정)","code":"0601","display":"일본뇌염(쥐뇌조직유래 불활성화 백신)"}]},"patient":{"reference":"Patient/10000000","resource":{"resourceType":"Patient","id":"10000000","meta":{"profile":["https://simplifier.net/myhealthway/StructureDefinition/PublicPatient"]},"identifier":[{"type":{"coding":[{"system":"http://myhealthway.go.kr(가칭)","code":"MHID"}]},"system":"미정","value":"10235126"},{"type":{"coding":[{"system":"http://terminology.hl7.org/CodeSystem/v2-0203","code":"NNKOR"}]},"system":"http://mois.go.kr/rnn","value":"0204023******"}],"name":[{"text":"박병현"}]}},"occurrenceDateTime":"2014-05-22","performer":[{"actor":{"reference":"Organization/14100002","resource":{"resourceType":"Organization","id":"14100002","identifier":[{"value":"리소스식별자(미정)"}],"type":[{"coding":[{"system":"미정","code":"미정","display":"병의원"}],"text":"병의원"}],"name":"서초아가페의원"}}}],"protocolApplied":[{"doseNumberPositiveInt":5}]}},{"resource":{"resourceType":"Immunization","id":"14000015","meta":{"profile":["https://simplifier.net/myhealthway/StructureDefinition/PublicImmunization"]},"identifier":[{"system":"리소스식별자(미정)","value":"6aba969e-f4aa-4e31-92e4-3305449af686"}],"contained":[{"resourceType":"Organization","id":"14100002","identifier":[{"value":"리소스식별자(미정)"}],"type":[{"coding":[{"system":"미정","code":"미정","display":"병의원"}],"text":"병의원"}],"name":"군보건의료기관"}],"status":"completed","vaccineCode":{"coding":[{"system":"코드체계(미정)","code":"0901","display":"인플루엔자"}]},"patient":{"reference":"Patient/10000000","resource":{"resourceType":"Patient","id":"10000000","meta":{"profile":["https://simplifier.net/myhealthway/StructureDefinition/PublicPatient"]},"identifier":[{"type":{"coding":[{"system":"http://myhealthway.go.kr(가칭)","code":"MHID"}]},"system":"미정","value":"10235126"},{"type":{"coding":[{"system":"http://terminology.hl7.org/CodeSystem/v2-0203","code":"NNKOR"}]},"system":"http://mois.go.kr/rnn","value":"0204023******"}],"name":[{"text":"박병현"}]}},"occurrenceDateTime":"2022-11-07","performer":[{"actor":{"reference":"Organization/14100002","resource":{"resourceType":"Organization","id":"14100002","identifier":[{"value":"리소스식별자(미정)"}],"type":[{"coding":[{"system":"미정","code":"미정","display":"병의원"}],"text":"병의원"}],"name":"군보건의료기관"}}}],"protocolApplied":[{"doseNumberPositiveInt":3}]}},{"resource":{"resourceType":"Immunization","id":"14000016","meta":{"profile":["https://simplifier.net/myhealthway/StructureDefinition/PublicImmunization"]},"identifier":[{"system":"리소스식별자(미정)","value":"9166c520-ba0f-4fe9-93a6-e14ef67d0832"}],"contained":[{"resourceType":"Organization","id":"14100002","identifier":[{"value":"리소스식별자(미정)"}],"type":[{"coding":[{"system":"미정","code":"미정","display":"병의원"}],"text":"병의원"}],"name":"군보건의료기관"}],"status":"completed","vaccineCode":{"coding":[{"system":"코드체계(미정)","code":"0701","display":"신증후군출혈열"}]},"patient":{"reference":"Patient/10000000","resource":{"resourceType":"Patient","id":"10000000","meta":{"profile":["https://simplifier.net/myhealthway/StructureDefinition/PublicPatient"]},"identifier":[{"type":{"coding":[{"system":"http://myhealthway.go.kr(가칭)","code":"MHID"}]},"system":"미정","value":"10235126"},{"type":{"coding":[{"system":"http://terminology.hl7.org/CodeSystem/v2-0203","code":"NNKOR"}]},"system":"http://mois.go.kr/rnn","value":"0204023******"}],"name":[{"text":"박병현"}]}},"occurrenceDateTime":"2022-11-07","performer":[{"actor":{"reference":"Organization/14100002","resource":{"resourceType":"Organization","id":"14100002","identifier":[{"value":"리소스식별자(미정)"}],"type":[{"coding":[{"system":"미정","code":"미정","display":"병의원"}],"text":"병의원"}],"name":"군보건의료기관"}}}],"protocolApplied":[{"doseNumberPositiveInt":1}]}},{"resource":{"resourceType":"Immunization","id":"14000017","meta":{"profile":["https://simplifier.net/myhealthway/StructureDefinition/PublicImmunization"]},"identifier":[{"system":"리소스식별자(미정)","value":"421f6d8d-4751-4109-a5cc-f40634ee0e75"}],"contained":[{"resourceType":"Organization","id":"14100002","identifier":[{"value":"리소스식별자(미정)"}],"type":[{"coding":[{"system":"미정","code":"미정","display":"병의원"}],"text":"병의원"}],"name":"군보건의료기관"}],"status":"completed","vaccineCode":{"coding":[{"system":"코드체계(미정)","code":"0701","display":"신증후군출혈열"}]},"patient":{"reference":"Patient/10000000","resource":{"resourceType":"Patient","id":"10000000","meta":{"profile":["https://simplifier.net/myhealthway/StructureDefinition/PublicPatient"]},"identifier":[{"type":{"coding":[{"system":"http://myhealthway.go.kr(가칭)","code":"MHID"}]},"system":"미정","value":"10235126"},{"type":{"coding":[{"system":"http://terminology.hl7.org/CodeSystem/v2-0203","code":"NNKOR"}]},"system":"http://mois.go.kr/rnn","value":"0204023******"}],"name":[{"text":"박병현"}]}},"occurrenceDateTime":"2022-12-05","performer":[{"actor":{"reference":"Organization/14100002","resource":{"resourceType":"Organization","id":"14100002","identifier":[{"value":"리소스식별자(미정)"}],"type":[{"coding":[{"system":"미정","code":"미정","display":"병의원"}],"text":"병의원"}],"name":"군보건의료기관"}}}],"protocolApplied":[{"doseNumberPositiveInt":2}]}},{"resource":{"resourceType":"Immunization","id":"14000018","meta":{"profile":["https://simplifier.net/myhealthway/StructureDefinition/PublicImmunization"]},"identifier":[{"system":"리소스식별자(미정)","value":"5f17bbe4-d152-4d5b-b966-e1a58e9abce9"}],"contained":[{"resourceType":"Organization","id":"14100002","identifier":[{"value":"리소스식별자(미정)"}],"type":[{"coding":[{"system":"미정","code":"미정","display":"병의원"}],"text":"병의원"}],"name":"코로나19 서울특별시 서초구 예방접종센터(서초문화예술회관)"}],"status":"completed","vaccineCode":{"coding":[{"system":"코드체계(미정)","code":"9901","display":"코로나19(화이자-바이오엔텍)"}]},"patient":{"reference":"Patient/10000000","resource":{"resourceType":"Patient","id":"10000000","meta":{"profile":["https://simplifier.net/myhealthway/StructureDefinition/PublicPatient"]},"identifier":[{"type":{"coding":[{"system":"http://myhealthway.go.kr(가칭)","code":"MHID"}]},"system":"미정","value":"10235126"},{"type":{"coding":[{"system":"http://terminology.hl7.org/CodeSystem/v2-0203","code":"NNKOR"}]},"system":"http://mois.go.kr/rnn","value":"0204023******"}],"name":[{"text":"박병현"}]}},"occurrenceDateTime":"2021-09-24","performer":[{"actor":{"reference":"Organization/14100002","resource":{"resourceType":"Organization","id":"14100002","identifier":[{"value":"리소스식별자(미정)"}],"type":[{"coding":[{"system":"미정","code":"미정","display":"병의원"}],"text":"병의원"}],"name":"코로나19 서울특별시 서초구 예방접종센터(서초문화예술회관)"}}}],"protocolApplied":[{"doseNumberPositiveInt":1}]}},{"resource":{"resourceType":"Immunization","id":"14000019","meta":{"profile":["https://simplifier.net/myhealthway/StructureDefinition/PublicImmunization"]},"identifier":[{"system":"리소스식별자(미정)","value":"32f08116-5c0b-45b0-9c2c-6808176ac617"}],"contained":[{"resourceType":"Organization","id":"14100002","identifier":[{"value":"리소스식별자(미정)"}],"type":[{"coding":[{"system":"미정","code":"미정","display":"병의원"}],"text":"병의원"}],"name":"연세휴가정의학과의원"}],"status":"completed","vaccineCode":{"coding":[{"system":"코드체계(미정)","code":"9901","display":"코로나19(화이자-바이오엔텍)"}]},"patient":{"reference":"Patient/10000000","resource":{"resourceType":"Patient","id":"10000000","meta":{"profile":["https://simplifier.net/myhealthway/StructureDefinition/PublicPatient"]},"identifier":[{"type":{"coding":[{"system":"http://myhealthway.go.kr(가칭)","code":"MHID"}]},"system":"미정","value":"10235126"},{"type":{"coding":[{"system":"http://terminology.hl7.org/CodeSystem/v2-0203","code":"NNKOR"}]},"system":"http://mois.go.kr/rnn","value":"0204023******"}],"name":[{"text":"박병현"}]}},"occurrenceDateTime":"2021-10-31","performer":[{"actor":{"reference":"Organization/14100002","resource":{"resourceType":"Organization","id":"14100002","identifier":[{"value":"리소스식별자(미정)"}],"type":[{"coding":[{"system":"미정","code":"미정","display":"병의원"}],"text":"병의원"}],"name":"연세휴가정의학과의원"}}}],"protocolApplied":[{"doseNumberPositiveInt":2}]}},{"resource":{"resourceType":"Immunization","id":"14000020","meta":{"profile":["https://simplifier.net/myhealthway/StructureDefinition/PublicImmunization"]},"identifier":[{"system":"리소스식별자(미정)","value":"80ce113b-54ad-4744-aed8-019740bbe733"}],"contained":[{"resourceType":"Organization","id":"14100002","identifier":[{"value":"리소스식별자(미정)"}],"type":[{"coding":[{"system":"미정","code":"미정","display":"병의원"}],"text":"병의원"}],"name":"연세휴가정의학과의원"}],"status":"completed","vaccineCode":{"coding":[{"system":"코드체계(미정)","code":"9901","display":"코로나19(화이자-바이오엔텍)"}]},"patient":{"reference":"Patient/10000000","resource":{"resourceType":"Patient","id":"10000000","meta":{"profile":["https://simplifier.net/myhealthway/StructureDefinition/PublicPatient"]},"identifier":[{"type":{"coding":[{"system":"http://myhealthway.go.kr(가칭)","code":"MHID"}]},"system":"미정","value":"10235126"},{"type":{"coding":[{"system":"http://terminology.hl7.org/CodeSystem/v2-0203","code":"NNKOR"}]},"system":"http://mois.go.kr/rnn","value":"0204023******"}],"name":[{"text":"박병현"}]}},"occurrenceDateTime":"2022-02-13","performer":[{"actor":{"reference":"Organization/14100002","resource":{"resourceType":"Organization","id":"14100002","identifier":[{"value":"리소스식별자(미정)"}],"type":[{"coding":[{"system":"미정","code":"미정","display":"병의원"}],"text":"병의원"}],"name":"연세휴가정의학과의원"}}}],"protocolApplied":[{"doseNumberPositiveInt":3}]}},{"resource":{"resourceType":"Patient","id":"10000000","meta":{"profile":["https://simplifier.net/myhealthway/StructureDefinition/PublicPatient"]},"identifier":[{"type":{"coding":[{"system":"http://myhealthway.go.kr(가칭)","code":"MHID"}]},"system":"미정","value":"10235126"},{"type":{"coding":[{"system":"http://terminology.hl7.org/CodeSystem/v2-0203","code":"NNKOR"}]},"system":"http://mois.go.kr/rnn","value":"0204023******"}],"name":[{"text":"박병현"}]}}],"medicalData":[]}