{"publicData":[{"resource":{"resourceType":"MedicationDispense","id":"16000001","meta":{"profile":["https://simplifier.net/myhealthway/StructureDefinition/PublicMedicationDispense"]},"identifier":[{"system":"리소스식별자(미정)","value":"8b47e7f1-9d8d-49a4-a017-8e67a9e490e6"}],"contained":[{"resourceType":"Organization","id":"16200001","identifier":[{"system":"리소스식별체계(미정)","value":"df24e5bf-9bde-43f7-8fc8-15939a2d993d"}],"type":[{"coding":[{"system":"미정","code":"미정","display":"약국"}],"text":"약국"}],"name":"사랑약국","address":[{"text":"경기도 남양주시 와부읍 덕소로97번길"}]}],"status":"completed","medicationReference":{"reference":"Medication/16100001","resource":{"resourceType":"Medication","id":"16100001","meta":{"profile":["https://simplifier.net/myhealthway/StructureDefinition/PublicMedication"]},"identifier":[{"system":"리소스식별자(미정)","value":"medication1"}],"contained":[{"resourceType":"Substance","id":"163000001","identifier":[{"system":"리소스식별자(미정)","value":"rebamipide"}]}],"code":{"coding":[{"system":"https://biz.kpis.or.kr/CodeSystem/kdcode","code":"641607470","display":"뮤코트라서방정150밀리그램(레바미피드)_(0.15g/1정)"}],"text":"뮤코트라서방정150밀리그램(레바미피드)_(0.15g/1정)"},"ingredient":[{"itemReference":{"reference":"Substance/163000001","resource":{"resourceType":"Substance","id":"163000001","identifier":[{"system":"리소스식별자(미정)","value":"rebamipide"}],"code":{"coding":[{"system":"https://www.hira.or.kr","code":"222902ATR","display":"rebamipide"}]}}}}]}},"subject":{"reference":"Patient/10000000","resource":{"resourceType":"Patient","id":"10000000","meta":{"profile":["https://simplifier.net/myhealthway/StructureDefinition/PublicPatient"]},"identifier":[{"type":{"coding":[{"system":"http://myhealthway.go.kr(가칭)","code":"MHID"}]},"system":"미정","value":"10237105"},{"type":{"coding":[{"system":"http://terminology.hl7.org/CodeSystem/v2-0203","code":"NNKOR"}]},"system":"http://mois.go.kr/rnn","value":"9202182******"}],"name":[{"text":"이은빈"}]}},"performer":[{"actor":{"reference":"Organization/16200001","resource":{"resourceType":"Organization","id":"16200001","identifier":[{"system":"리소스식별체계(미정)","value":"df24e5bf-9bde-43f7-8fc8-15939a2d993d"}],"type":[{"coding":[{"system":"미정","code":"미정","display":"약국"}],"text":"약국"}],"name":"사랑약국","address":[{"text":"경기도 남양주시 와부읍 덕소로97번길"}]}}}],"daysSupply":{"value":3,"unit":"일","system":"http://unitsofmeasure.org","code":"d"},"whenPrepared":"2025-02-15","dosageInstruction":[{"text":"1정","timing":{"repeat":{"extension":[{"url":"https://simplifier.net/myhealthway/StructureDefinition/TimingforPublicMedicationDispense","valueString":"2"}],"frequency":2,"period":1,"periodUnit":"d"}},"doseAndRate":[{"doseQuantity":{"value":1.0}}]}]}},{"resource":{"resourceType":"MedicationDispense","id":"16000002","meta":{"profile":["https://simplifier.net/myhealthway/StructureDefinition/PublicMedicationDispense"]},"identifier":[{"system":"리소스식별자(미정)","value":"f68ac19e-3a8c-424a-b742-0f836cb72be6"}],"contained":[{"resourceType":"Organization","id":"16200002","identifier":[{"system":"리소스식별체계(미정)","value":"a976194a-b549-44a1-9267-453148fae42f"}],"type":[{"coding":[{"system":"미정","code":"미정","display":"약국"}],"text":"약국"}],"name":"사랑약국","address":[{"text":"경기도 남양주시 와부읍 덕소로97번길"}]}],"status":"completed","medicationReference":{"reference":"Medication/16100002","resource":{"resourceType":"Medication","id":"16100002","meta":{"profile":["https://simplifier.net/myhealthway/StructureDefinition/PublicMedication"]},"identifier":[{"system":"리소스식별자(미정)","value":"medication1"}],"contained":[{"resourceType":"Substance","id":"163000001","identifier":[{"system":"리소스식별자(미정)","value":"eperisone hydrochloride"}]}],"code":{"coding":[{"system":"https://biz.kpis.or.kr/CodeSystem/kdcode","code":"649806870","display":"에페신SR정(에페리손염산염)_(75mg/1정)"}],"text":"에페신SR정(에페리손염산염)_(75mg/1정)"},"ingredient":[{"itemReference":{"reference":"Substance/163000001","resource":{"resourceType":"Substance","id":"163000001","identifier":[{"system":"리소스식별자(미정)","value":"eperisone hydrochloride"}],"code":{"coding":[{"system":"https://www.hira.or.kr","code":"152302ATR","display":"eperisone hydrochloride"}]}}}}]}},"subject":{"reference":"Patient/10000000","resource":{"resourceType":"Patient","id":"10000000","meta":{"profile":["https://simplifier.net/myhealthway/StructureDefinition/PublicPatient"]},"identifier":[{"type":{"coding":[{"system":"http://myhealthway.go.kr(가칭)","code":"MHID"}]},"system":"미정","value":"10237105"},{"type":{"coding":[{"system":"http://terminology.hl7.org/CodeSystem/v2-0203","code":"NNKOR"}]},"system":"http://mois.go.kr/rnn","value":"9202182******"}],"name":[{"text":"이은빈"}]}},"performer":[{"actor":{"reference":"Organization/16200002","resource":{"resourceType":"Organization","id":"16200002","identifier":[{"system":"리소스식별체계(미정)","value":"a976194a-b549-44a1-9267-453148fae42f"}],"type":[{"coding":[{"system":"미정","code":"미정","display":"약국"}],"text":"약국"}],"name":"사랑약국","address":[{"text":"경기도 남양주시 와부읍 덕소로97번길"}]}}}],"daysSupply":{"value":3,"unit":"일","system":"http://unitsofmeasure.org","code":"d"},"whenPrepared":"2025-02-15","dosageInstruction":[{"text":"1정","timing":{"repeat":{"extension":[{"url":"https://simplifier.net/myhealthway/StructureDefinition/TimingforPublicMedicationDispense","valueString":"2"}],"frequency":2,"period":1,"periodUnit":"d"}},"doseAndRate":[{"doseQuantity":{"value":1.0}}]}]}},{"resource":{"resourceType":"MedicationDispense","id":"16000003","meta":{"profile":["https://simplifier.net/myhealthway/StructureDefinition/PublicMedicationDispense"]},"identifier":[{"system":"리소스식별자(미정)","value":"46a61e40-38fd-4ac9-8975-f0d9bba01356"}],"contained":[{"resourceType":"Organization","id":"16200003","identifier":[{"system":"리소스식별체계(미정)","value":"732de183-d042-4e11-809d-07d4bd006c43"}],"type":[{"coding":[{"system":"미정","code":"미정","display":"약국"}],"text":"약국"}],"name":"사랑약국","address":[{"text":"경기도 남양주시 와부읍 덕소로97번길"}]}],"status":"completed","medicationReference":{"reference":"Medication/16100003","resource":{"resourceType":"Medication","id":"16100003","meta":{"profile":["https://simplifier.net/myhealthway/StructureDefinition/PublicMedication"]},"identifier":[{"system":"리소스식별자(미정)","value":"medication1"}],"contained":[{"resourceType":"Substance","id":"163000001","identifier":[{"system":"리소스식별자(미정)","value":"aceclofenac"}]}],"code":{"coding":[{"system":"https://biz.kpis.or.kr/CodeSystem/kdcode","code":"698500220","display":"아클펜정(아세클로페낙)_(0.1g/1정)"}],"text":"아클펜정(아세클로페낙)_(0.1g/1정)"},"ingredient":[{"itemReference":{"reference":"Substance/163000001","resource":{"resourceType":"Substance","id":"163000001","identifier":[{"system":"리소스식별자(미정)","value":"aceclofenac"}],"code":{"coding":[{"system":"https://www.hira.or.kr","code":"100901ATB","display":"aceclofenac"}]}}}}]}},"subject":{"reference":"Patient/10000000","resource":{"resourceType":"Patient","id":"10000000","meta":{"profile":["https://simplifier.net/myhealthway/StructureDefinition/PublicPatient"]},"identifier":[{"type":{"coding":[{"system":"http://myhealthway.go.kr(가칭)","code":"MHID"}]},"system":"미정","value":"10237105"},{"type":{"coding":[{"system":"http://terminology.hl7.org/CodeSystem/v2-0203","code":"NNKOR"}]},"system":"http://mois.go.kr/rnn","value":"9202182******"}],"name":[{"text":"이은빈"}]}},"performer":[{"actor":{"reference":"Organization/16200003","resource":{"resourceType":"Organization","id":"16200003","identifier":[{"system":"리소스식별체계(미정)","value":"732de183-d042-4e11-809d-07d4bd006c43"}],"type":[{"coding":[{"system":"미정","code":"미정","display":"약국"}],"text":"약국"}],"name":"사랑약국","address":[{"text":"경기도 남양주시 와부읍 덕소로97번길"}]}}}],"daysSupply":{"value":3,"unit":"일","system":"http://unitsofmeasure.org","code":"d"},"whenPrepared":"2025-02-15","dosageInstruction":[{"text":"1정","timing":{"repeat":{"extension":[{"url":"https://simplifier.net/myhealthway/StructureDefinition/TimingforPublicMedicationDispense","valueString":"2"}],"frequency":2,"period":1,"periodUnit":"d"}},"doseAndRate":[{"doseQuantity":{"value":1.0}}]}]}},{"resource":{"resourceType":"MedicationDispense","id":"16000004","meta":{"profile":["https://simplifier.net/myhealthway/StructureDefinition/PublicMedicationDispense"]},"identifier":[{"system":"리소스식별자(미정)","value":"1767f673-3910-4f4d-bfff-eeddb7ec4ee2"}],"contained":[{"resourceType":"Organization","id":"16200004","identifier":[{"system":"리소스식별체계(미정)","value":"f60280b4-f869-4df5-8e50-10243510f81a"}],"type":[{"coding":[{"system":"미정","code":"미정","display":"약국"}],"text":"약국"}],"name":"사랑약국","address":[{"text":"경기도 남양주시 와부읍 덕소로97번길"}]}],"status":"completed","medicationReference":{"reference":"Medication/16100004","resource":{"resourceType":"Medication","id":"16100004","meta":{"profile":["https://simplifier.net/myhealthway/StructureDefinition/PublicMedication"]},"identifier":[{"system":"리소스식별자(미정)","value":"medication1"}],"contained":[{"resourceType":"Substance","id":"163000001","identifier":[{"system":"리소스식별자(미정)","value":"rabeprazole sodium"}]}],"code":{"coding":[{"system":"https://biz.kpis.or.kr/CodeSystem/kdcode","code":"698502520","display":"라베졸정10mg(라베프라졸나트륨)_(10mg/1정)"}],"text":"라베졸정10mg(라베프라졸나트륨)_(10mg/1정)"},"ingredient":[{"itemReference":{"reference":"Substance/163000001","resource":{"resourceType":"Substance","id":"163000001","identifier":[{"system":"리소스식별자(미정)","value":"rabeprazole sodium"}],"code":{"coding":[{"system":"https://www.hira.or.kr","code":"222201ATE","display":"rabeprazole sodium"}]}}}}]}},"subject":{"reference":"Patient/10000000","resource":{"resourceType":"Patient","id":"10000000","meta":{"profile":["https://simplifier.net/myhealthway/StructureDefinition/PublicPatient"]},"identifier":[{"type":{"coding":[{"system":"http://myhealthway.go.kr(가칭)","code":"MHID"}]},"system":"미정","value":"10237105"},{"type":{"coding":[{"system":"http://terminology.hl7.org/CodeSystem/v2-0203","code":"NNKOR"}]},"system":"http://mois.go.kr/rnn","value":"9202182******"}],"name":[{"text":"이은빈"}]}},"performer":[{"actor":{"reference":"Organization/16200004","resource":{"resourceType":"Organization","id":"16200004","identifier":[{"system":"리소스식별체계(미정)","value":"f60280b4-f869-4df5-8e50-10243510f81a"}],"type":[{"coding":[{"system":"미정","code":"미정","display":"약국"}],"text":"약국"}],"name":"사랑약국","address":[{"text":"경기도 남양주시 와부읍 덕소로97번길"}]}}}],"daysSupply":{"value":3,"unit":"일","system":"http://unitsofmeasure.org","code":"d"},"whenPrepared":"2025-02-15","dosageInstruction":[{"text":"1정","timing":{"repeat":{"extension":[{"url":"https://simplifier.net/myhealthway/StructureDefinition/TimingforPublicMedicationDispense","valueString":"2"}],"frequency":2,"period":1,"periodUnit":"d"}},"doseAndRate":[{"doseQuantity":{"value":1.0}}]}]}},{"resource":{"resourceType":"Medication","id":"16100001","meta":{"profile":["https://simplifier.net/myhealthway/StructureDefinition/PublicMedication"]},"identifier":[{"system":"리소스식별자(미정)","value":"medication1"}],"contained":[{"resourceType":"Substance","id":"163000001","identifier":[{"system":"리소스식별자(미정)","value":"rebamipide"}],"code":{"coding":[{"system":"https://www.hira.or.kr","code":"222902ATR","display":"rebamipide"}]}}],"code":{"coding":[{"system":"https://biz.kpis.or.kr/CodeSystem/kdcode","code":"641607470","display":"뮤코트라서방정150밀리그램(레바미피드)_(0.15g/1정)"}],"text":"뮤코트라서방정150밀리그램(레바미피드)_(0.15g/1정)"},"ingredient":[{"itemReference":{"reference":"Substance/163000001","resource":{"resourceType":"Substance","id":"163000001","identifier":[{"system":"리소스식별자(미정)","value":"rebamipide"}],"code":{"coding":[{"system":"https://www.hira.or.kr","code":"222902ATR","display":"rebamipide"}]}}}}]}},{"resource":{"resourceType":"Medication","id":"16100002","meta":{"profile":["https://simplifier.net/myhealthway/StructureDefinition/PublicMedication"]},"identifier":[{"system":"리소스식별자(미정)","value":"medication1"}],"contained":[{"resourceType":"Substance","id":"163000001","identifier":[{"system":"리소스식별자(미정)","value":"eperisone hydrochloride"}],"code":{"coding":[{"system":"https://www.hira.or.kr","code":"152302ATR","display":"eperisone hydrochloride"}]}}],"code":{"coding":[{"system":"https://biz.kpis.or.kr/CodeSystem/kdcode","code":"649806870","display":"에페신SR정(에페리손염산염)_(75mg/1정)"}],"text":"에페신SR정(에페리손염산염)_(75mg/1정)"},"ingredient":[{"itemReference":{"reference":"Substance/163000001","resource":{"resourceType":"Substance","id":"163000001","identifier":[{"system":"리소스식별자(미정)","value":"eperisone hydrochloride"}],"code":{"coding":[{"system":"https://www.hira.or.kr","code":"152302ATR","display":"eperisone hydrochloride"}]}}}}]}},{"resource":{"resourceType":"Medication","id":"16100003","meta":{"profile":["https://simplifier.net/myhealthway/StructureDefinition/PublicMedication"]},"identifier":[{"system":"리소스식별자(미정)","value":"medication1"}],"contained":[{"resourceType":"Substance","id":"163000001","identifier":[{"system":"리소스식별자(미정)","value":"aceclofenac"}],"code":{"coding":[{"system":"https://www.hira.or.kr","code":"100901ATB","display":"aceclofenac"}]}}],"code":{"coding":[{"system":"https://biz.kpis.or.kr/CodeSystem/kdcode","code":"698500220","display":"아클펜정(아세클로페낙)_(0.1g/1정)"}],"text":"아클펜정(아세클로페낙)_(0.1g/1정)"},"ingredient":[{"itemReference":{"reference":"Substance/163000001","resource":{"resourceType":"Substance","id":"163000001","identifier":[{"system":"리소스식별자(미정)","value":"aceclofenac"}],"code":{"coding":[{"system":"https://www.hira.or.kr","code":"100901ATB","display":"aceclofenac"}]}}}}]}},{"resource":{"resourceType":"Medication","id":"16100004","meta":{"profile":["https://simplifier.net/myhealthway/StructureDefinition/PublicMedication"]},"identifier":[{"system":"리소스식별자(미정)","value":"medication1"}],"contained":[{"resourceType":"Substance","id":"163000001","identifier":[{"system":"리소스식별자(미정)","value":"rabeprazole sodium"}],"code":{"coding":[{"system":"https://www.hira.or.kr","code":"222201ATE","display":"rabeprazole sodium"}]}}],"code":{"coding":[{"system":"https://biz.kpis.or.kr/CodeSystem/kdcode","code":"698502520","display":"라베졸정10mg(라베프라졸나트륨)_(10mg/1정)"}],"text":"라베졸정10mg(라베프라졸나트륨)_(10mg/1정)"},"ingredient":[{"itemReference":{"reference":"Substance/163000001","resource":{"resourceType":"Substance","id":"163000001","identifier":[{"system":"리소스식별자(미정)","value":"rabeprazole sodium"}],"code":{"coding":[{"system":"https://www.hira.or.kr","code":"222201ATE","display":"rabeprazole sodium"}]}}}}]}},{"resource":{"resourceType":"ExplanationOfBenefit","id":"17000001","meta":{"profile":["https://simplifier.net/myhealthway/StructureDefinition/PublicExplanationOfBenefit"]},"identifier":[{"system":"리소스식별자(미정)","value":"bd073495-b784-4ff0-b1cf-fc55f1ff729c"}],"contained":[{"resourceType":"Organization","id":"17100001","type":[{"coding":[{"system":"미정","code":"미정","display":"보험사"}],"text":"보험사"}],"name":"국민건강보험공단"},{"resourceType":"Organization","id":"17100002","type":[{"coding":[{"system":"미정","code":"미정","display":"병의원"}],"text":"병의원"}],"name":"서울마디튼튼의원","address":[{"text":"남양주시 와부읍"}]},{"resourceType":"Coverage","id":"17300001","status":"active","beneficiary":{"reference":"Patient/10000000","resource":{"resourceType":"Patient","id":"10000000","meta":{"profile":["https://simplifier.net/myhealthway/StructureDefinition/PublicPatient"]},"identifier":[{"type":{"coding":[{"system":"http://myhealthway.go.kr(가칭)","code":"MHID"}]},"system":"미정","value":"10237105"},{"type":{"coding":[{"system":"http://terminology.hl7.org/CodeSystem/v2-0203","code":"NNKOR"}]},"system":"http://mois.go.kr/rnn","value":"9202182******"}],"name":[{"text":"이은빈"}]}},"payor":[{"reference":"Organization/17100002","resource":{"resourceType":"Organization","id":"17100002","type":[{"coding":[{"system":"미정","code":"미정","display":"병의원"}],"text":"병의원"}],"name":"서울마디튼튼의원","address":[{"text":"남양주시 와부읍"}]}}]}],"status":"active","type":{"coding":[{"system":"http://terminology.hl7.org/CodeSystem/claim-type","code":"institutional","display":"institutional"}]},"use":"claim","patient":{"reference":"Patient/10000000","resource":{"resourceType":"Patient","id":"10000000","meta":{"profile":["https://simplifier.net/myhealthway/StructureDefinition/PublicPatient"]},"identifier":[{"type":{"coding":[{"system":"http://myhealthway.go.kr(가칭)","code":"MHID"}]},"system":"미정","value":"10237105"},{"type":{"coding":[{"system":"http://terminology.hl7.org/CodeSystem/v2-0203","code":"NNKOR"}]},"system":"http://mois.go.kr/rnn","value":"9202182******"}],"name":[{"text":"이은빈"}]}},"billablePeriod":{"start":"2025-02-15"},"created":"2025-02-15","insurer":{"reference":"Organization/17100001","resource":{"resourceType":"Organization","id":"17100001","type":[{"coding":[{"system":"미정","code":"미정","display":"보험사"}],"text":"보험사"}],"name":"국민건강보험공단"}},"provider":{"reference":"Organization/17100002","resource":{"resourceType":"Organization","id":"17100002","type":[{"coding":[{"system":"미정","code":"미정","display":"병의원"}],"text":"병의원"}],"name":"서울마디튼튼의원","address":[{"text":"남양주시 와부읍"}]}},"outcome":"complete","supportingInfo":[{"sequence":1,"category":{"coding":[{"system":"http://terminology.hl7.org/CodeSystem/claiminformationcategory","code":"hospitalized","display":"Hosptialized"}]},"code":{"text":"1"}},{"sequence":2,"category":{"coding":[{"system":"http://terminology.hl7.org/CodeSystem/claiminformationcategory","code":"related","display":"Related Service"}]},"code":{"text":"1"}},{"sequence":3,"category":{"coding":[{"system":"http://terminology.hl7.org/CodeSystem/claiminformationcategory","code":"other","display":"Other"}]},"code":{"text":"1"}}],"total":[{"category":{"coding":[{"system":"http://terminology.hl7.org/CodeSystem/adjudication","code":"copay","display":"CoPay"}]},"amount":{"value":17400,"currency":"KRW"}},{"category":{"coding":[{"system":"http://terminology.hl7.org/CodeSystem/adjudication","code":"benefit","display":"Benefit Amount"}]},"amount":{"value":40790,"currency":"KRW"}}]}},{"resource":{"resourceType":"ExplanationOfBenefit","id":"17000003","meta":{"profile":["https://simplifier.net/myhealthway/StructureDefinition/PublicExplanationOfBenefit"]},"identifier":[{"system":"리소스식별자(미정)","value":"660a6f2b-5bd7-46bb-8f63-0459645d850f"}],"contained":[{"resourceType":"Organization","id":"17100001","type":[{"coding":[{"system":"미정","code":"미정","display":"보험사"}],"text":"보험사"}],"name":"국민건강보험공단"},{"resourceType":"Organization","id":"17100002","type":[{"coding":[{"system":"미정","code":"미정","display":"병의원"}],"text":"병의원"}],"name":"아트부부치과의원","address":[{"text":"서초구 반포대로"}]},{"resourceType":"Coverage","id":"17300001","status":"active","beneficiary":{"reference":"Patient/10000000","resource":{"resourceType":"Patient","id":"10000000","meta":{"profile":["https://simplifier.net/myhealthway/StructureDefinition/PublicPatient"]},"identifier":[{"type":{"coding":[{"system":"http://myhealthway.go.kr(가칭)","code":"MHID"}]},"system":"미정","value":"10237105"},{"type":{"coding":[{"system":"http://terminology.hl7.org/CodeSystem/v2-0203","code":"NNKOR"}]},"system":"http://mois.go.kr/rnn","value":"9202182******"}],"name":[{"text":"이은빈"}]}},"payor":[{"reference":"Organization/17100002","resource":{"resourceType":"Organization","id":"17100002","type":[{"coding":[{"system":"미정","code":"미정","display":"병의원"}],"text":"병의원"}],"name":"아트부부치과의원","address":[{"text":"서초구 반포대로"}]}}]}],"status":"active","type":{"coding":[{"system":"http://terminology.hl7.org/CodeSystem/claim-type","code":"institutional","display":"institutional"}]},"use":"claim","patient":{"reference":"Patient/10000000","resource":{"resourceType":"Patient","id":"10000000","meta":{"profile":["https://simplifier.net/myhealthway/StructureDefinition/PublicPatient"]},"identifier":[{"type":{"coding":[{"system":"http://myhealthway.go.kr(가칭)","code":"MHID"}]},"system":"미정","value":"10237105"},{"type":{"coding":[{"system":"http://terminology.hl7.org/CodeSystem/v2-0203","code":"NNKOR"}]},"system":"http://mois.go.kr/rnn","value":"9202182******"}],"name":[{"text":"이은빈"}]}},"billablePeriod":{"start":"2024-11-18"},"created":"2024-11-18","insurer":{"reference":"Organization/17100001","resource":{"resourceType":"Organization","id":"17100001","type":[{"coding":[{"system":"미정","code":"미정","display":"보험사"}],"text":"보험사"}],"name":"국민건강보험공단"}},"provider":{"reference":"Organization/17100002","resource":{"resourceType":"Organization","id":"17100002","type":[{"coding":[{"system":"미정","code":"미정","display":"병의원"}],"text":"병의원"}],"name":"아트부부치과의원","address":[{"text":"서초구 반포대로"}]}},"outcome":"complete","supportingInfo":[{"sequence":1,"category":{"coding":[{"system":"http://terminology.hl7.org/CodeSystem/claiminformationcategory","code":"hospitalized","display":"Hosptialized"}]},"code":{"text":"1"}},{"sequence":2,"category":{"coding":[{"system":"http://terminology.hl7.org/CodeSystem/claiminformationcategory","code":"related","display":"Related Service"}]},"code":{"text":"0"}},{"sequence":3,"category":{"coding":[{"system":"http://terminology.hl7.org/CodeSystem/claiminformationcategory","code":"other","display":"Other"}]},"code":{"text":"1"}}],"total":[{"category":{"coding":[{"system":"http://terminology.hl7.org/CodeSystem/adjudication","code":"copay","display":"CoPay"}]},"amount":{"value":12300,"currency":"KRW"}},{"category":{"coding":[{"system":"http://terminology.hl7.org/CodeSystem/adjudication","code":"benefit","display":"Benefit Amount"}]},"amount":{"value":28830,"currency":"KRW"}}]}},{"resource":{"resourceType":"ExplanationOfBenefit","id":"17000005","meta":{"profile":["https://simplifier.net/myhealthway/StructureDefinition/PublicExplanationOfBenefit"]},"identifier":[{"system":"리소스식별자(미정)","value":"709f661e-cab8-4ca3-a70c-4dc506ee106b"}],"contained":[{"resourceType":"Organization","id":"17100001","type":[{"coding":[{"system":"미정","code":"미정","display":"보험사"}],"text":"보험사"}],"name":"국민건강보험공단"},{"resourceType":"Organization","id":"17100002","type":[{"coding":[{"system":"미정","code":"미정","display":"약국"}],"text":"약국"}],"name":"서초로하스약국","address":[{"text":"서초구 서초중앙로"}]},{"resourceType":"Coverage","id":"17300001","status":"active","beneficiary":{"reference":"Patient/10000000","resource":{"resourceType":"Patient","id":"10000000","meta":{"profile":["https://simplifier.net/myhealthway/StructureDefinition/PublicPatient"]},"identifier":[{"type":{"coding":[{"system":"http://myhealthway.go.kr(가칭)","code":"MHID"}]},"system":"미정","value":"10237105"},{"type":{"coding":[{"system":"http://terminology.hl7.org/CodeSystem/v2-0203","code":"NNKOR"}]},"system":"http://mois.go.kr/rnn","value":"9202182******"}],"name":[{"text":"이은빈"}]}},"payor":[{"reference":"Organization/17100002","resource":{"resourceType":"Organization","id":"17100002","type":[{"coding":[{"system":"미정","code":"미정","display":"약국"}],"text":"약국"}],"name":"서초로하스약국","address":[{"text":"서초구 서초중앙로"}]}}]}],"status":"active","type":{"coding":[{"system":"http://terminology.hl7.org/CodeSystem/claim-type","code":"pharmacy","display":"pharmacy"}]},"use":"claim","patient":{"reference":"Patient/10000000","resource":{"resourceType":"Patient","id":"10000000","meta":{"profile":["https://simplifier.net/myhealthway/StructureDefinition/PublicPatient"]},"identifier":[{"type":{"coding":[{"system":"http://myhealthway.go.kr(가칭)","code":"MHID"}]},"system":"미정","value":"10237105"},{"type":{"coding":[{"system":"http://terminology.hl7.org/CodeSystem/v2-0203","code":"NNKOR"}]},"system":"http://mois.go.kr/rnn","value":"9202182******"}],"name":[{"text":"이은빈"}]}},"billablePeriod":{"start":"2024-06-19"},"created":"2024-06-19","insurer":{"reference":"Organization/17100001","resource":{"resourceType":"Organization","id":"17100001","type":[{"coding":[{"system":"미정","code":"미정","display":"보험사"}],"text":"보험사"}],"name":"국민건강보험공단"}},"provider":{"reference":"Organization/17100002","resource":{"resourceType":"Organization","id":"17100002","type":[{"coding":[{"system":"미정","code":"미정","display":"약국"}],"text":"약국"}],"name":"서초로하스약국","address":[{"text":"서초구 서초중앙로"}]}},"outcome":"complete","supportingInfo":[{"sequence":1,"category":{"coding":[{"system":"http://terminology.hl7.org/CodeSystem/claiminformationcategory","code":"hospitalized","display":"Hosptialized"}]},"code":{"text":"1"}},{"sequence":2,"category":{"coding":[{"system":"http://terminology.hl7.org/CodeSystem/claiminformationcategory","code":"related","display":"Related Service"}]},"code":{"text":"1"}},{"sequence":3,"category":{"coding":[{"system":"http://terminology.hl7.org/CodeSystem/claiminformationcategory","code":"other","display":"Other"}]},"code":{"text":"7"}}],"total":[{"category":{"coding":[{"system":"http://terminology.hl7.org/CodeSystem/adjudication","code":"copay","display":"CoPay"}]},"amount":{"value":3500,"currency":"KRW"}},{"category":{"coding":[{"system":"http://terminology.hl7.org/CodeSystem/adjudication","code":"benefit","display":"Benefit Amount"}]},"amount":{"value":8190,"currency":"KRW"}}]}},{"resource":{"resourceType":"ExplanationOfBenefit","id":"17000006","meta":{"profile":["https://simplifier.net/myhealthway/StructureDefinition/PublicExplanationOfBenefit"]},"identifier":[{"system":"리소스식별자(미정)","value":"3c4ed84e-bc8e-43ac-a151-c8c99bfd011e"}],"contained":[{"resourceType":"Organization","id":"17100001","type":[{"coding":[{"system":"미정","code":"미정","display":"보험사"}],"text":"보험사"}],"name":"국민건강보험공단"},{"resourceType":"Organization","id":"17100002","type":[{"coding":[{"system":"미정","code":"미정","display":"병의원"}],"text":"병의원"}],"name":"오늘은한의원","address":[{"text":"서초구 반포대로"}]},{"resourceType":"Coverage","id":"17300001","status":"active","beneficiary":{"reference":"Patient/10000000","resource":{"resourceType":"Patient","id":"10000000","meta":{"profile":["https://simplifier.net/myhealthway/StructureDefinition/PublicPatient"]},"identifier":[{"type":{"coding":[{"system":"http://myhealthway.go.kr(가칭)","code":"MHID"}]},"system":"미정","value":"10237105"},{"type":{"coding":[{"system":"http://terminology.hl7.org/CodeSystem/v2-0203","code":"NNKOR"}]},"system":"http://mois.go.kr/rnn","value":"9202182******"}],"name":[{"text":"이은빈"}]}},"payor":[{"reference":"Organization/17100002","resource":{"resourceType":"Organization","id":"17100002","type":[{"coding":[{"system":"미정","code":"미정","display":"병의원"}],"text":"병의원"}],"name":"오늘은한의원","address":[{"text":"서초구 반포대로"}]}}]}],"status":"active","type":{"coding":[{"system":"http://terminology.hl7.org/CodeSystem/claim-type","code":"institutional","display":"institutional"}]},"use":"claim","patient":{"reference":"Patient/10000000","resource":{"resourceType":"Patient","id":"10000000","meta":{"profile":["https://simplifier.net/myhealthway/StructureDefinition/PublicPatient"]},"identifier":[{"type":{"coding":[{"system":"http://myhealthway.go.kr(가칭)","code":"MHID"}]},"system":"미정","value":"10237105"},{"type":{"coding":[{"system":"http://terminology.hl7.org/CodeSystem/v2-0203","code":"NNKOR"}]},"system":"http://mois.go.kr/rnn","value":"9202182******"}],"name":[{"text":"이은빈"}]}},"billablePeriod":{"start":"2024-06-17"},"created":"2024-06-17","insurer":{"reference":"Organization/17100001","resource":{"resourceType":"Organization","id":"17100001","type":[{"coding":[{"system":"미정","code":"미정","display":"보험사"}],"text":"보험사"}],"name":"국민건강보험공단"}},"provider":{"reference":"Organization/17100002","resource":{"resourceType":"Organization","id":"17100002","type":[{"coding":[{"system":"미정","code":"미정","display":"병의원"}],"text":"병의원"}],"name":"오늘은한의원","address":[{"text":"서초구 반포대로"}]}},"outcome":"complete","supportingInfo":[{"sequence":1,"category":{"coding":[{"system":"http://terminology.hl7.org/CodeSystem/claiminformationcategory","code":"hospitalized","display":"Hosptialized"}]},"code":{"text":"1"}},{"sequence":2,"category":{"coding":[{"system":"http://terminology.hl7.org/CodeSystem/claiminformationcategory","code":"related","display":"Related Service"}]},"code":{"text":"0"}},{"sequence":3,"category":{"coding":[{"system":"http://terminology.hl7.org/CodeSystem/claiminformationcategory","code":"other","display":"Other"}]},"code":{"text":"1"}}],"total":[{"category":{"coding":[{"system":"http://terminology.hl7.org/CodeSystem/adjudication","code":"copay","display":"CoPay"}]},"amount":{"value":18600,"currency":"KRW"}},{"category":{"coding":[{"system":"http://terminology.hl7.org/CodeSystem/adjudication","code":"benefit","display":"Benefit Amount"}]},"amount":{"value":43650,"currency":"KRW"}}]}},{"resource":{"resourceType":"ExplanationOfBenefit","id":"17000007","meta":{"profile":["https://simplifier.net/myhealthway/StructureDefinition/PublicExplanationOfBenefit"]},"identifier":[{"system":"리소스식별자(미정)","value":"44b57a81-cb6a-4a44-ae28-3b9e7fba8069"}],"contained":[{"resourceType":"Organization","id":"17100001","type":[{"coding":[{"system":"미정","code":"미정","display":"보험사"}],"text":"보험사"}],"name":"국민건강보험공단"},{"resourceType":"Organization","id":"17100002","type":[{"coding":[{"system":"미정","code":"미정","display":"병의원"}],"text":"병의원"}],"name":"아트부부치과의원","address":[{"text":"서초구 반포대로"}]},{"resourceType":"Coverage","id":"17300001","status":"active","beneficiary":{"reference":"Patient/10000000","resource":{"resourceType":"Patient","id":"10000000","meta":{"profile":["https://simplifier.net/myhealthway/StructureDefinition/PublicPatient"]},"identifier":[{"type":{"coding":[{"system":"http://myhealthway.go.kr(가칭)","code":"MHID"}]},"system":"미정","value":"10237105"},{"type":{"coding":[{"system":"http://terminology.hl7.org/CodeSystem/v2-0203","code":"NNKOR"}]},"system":"http://mois.go.kr/rnn","value":"9202182******"}],"name":[{"text":"이은빈"}]}},"payor":[{"reference":"Organization/17100002","resource":{"resourceType":"Organization","id":"17100002","type":[{"coding":[{"system":"미정","code":"미정","display":"병의원"}],"text":"병의원"}],"name":"아트부부치과의원","address":[{"text":"서초구 반포대로"}]}}]}],"status":"active","type":{"coding":[{"system":"http://terminology.hl7.org/CodeSystem/claim-type","code":"institutional","display":"institutional"}]},"use":"claim","patient":{"reference":"Patient/10000000","resource":{"resourceType":"Patient","id":"10000000","meta":{"profile":["https://simplifier.net/myhealthway/StructureDefinition/PublicPatient"]},"identifier":[{"type":{"coding":[{"system":"http://myhealthway.go.kr(가칭)","code":"MHID"}]},"system":"미정","value":"10237105"},{"type":{"coding":[{"system":"http://terminology.hl7.org/CodeSystem/v2-0203","code":"NNKOR"}]},"system":"http://mois.go.kr/rnn","value":"9202182******"}],"name":[{"text":"이은빈"}]}},"billablePeriod":{"start":"2024-04-30"},"created":"2024-04-30","insurer":{"reference":"Organization/17100001","resource":{"resourceType":"Organization","id":"17100001","type":[{"coding":[{"system":"미정","code":"미정","display":"보험사"}],"text":"보험사"}],"name":"국민건강보험공단"}},"provider":{"reference":"Organization/17100002","resource":{"resourceType":"Organization","id":"17100002","type":[{"coding":[{"system":"미정","code":"미정","display":"병의원"}],"text":"병의원"}],"name":"아트부부치과의원","address":[{"text":"서초구 반포대로"}]}},"outcome":"complete","supportingInfo":[{"sequence":1,"category":{"coding":[{"system":"http://terminology.hl7.org/CodeSystem/claiminformationcategory","code":"hospitalized","display":"Hosptialized"}]},"code":{"text":"1"}},{"sequence":2,"category":{"coding":[{"system":"http://terminology.hl7.org/CodeSystem/claiminformationcategory","code":"related","display":"Related Service"}]},"code":{"text":"0"}},{"sequence":3,"category":{"coding":[{"system":"http://terminology.hl7.org/CodeSystem/claiminformationcategory","code":"other","display":"Other"}]},"code":{"text":"1"}}],"total":[{"category":{"coding":[{"system":"http://terminology.hl7.org/CodeSystem/adjudication","code":"copay","display":"CoPay"}]},"amount":{"value":21600,"currency":"KRW"}},{"category":{"coding":[{"system":"http://terminology.hl7.org/CodeSystem/adjudication","code":"benefit","display":"Benefit Amount"}]},"amount":{"value":50420,"currency":"KRW"}}]}},{"resource":{"resourceType":"Immunization","id":"14000001","meta":{"profile":["https://simplifier.net/myhealthway/StructureDefinition/PublicImmunization"]},"identifier":[{"system":"리소스식별자(미정)","value":"1fdd71c5-227a-4e7e-97ed-3ba094ac1ec7"}],"contained":[{"resourceType":"Organization","id":"14100002","identifier":[{"value":"리소스식별자(미정)"}],"type":[{"coding":[{"system":"미정","code":"미정","display":"병의원"}],"text":"병의원"}],"name":"기관미상"}],"status":"completed","vaccineCode":{"coding":[{"system":"코드체계(미정)","code":"0501","display":"홍역, 유행성이하선염, 풍진(MMR)"}]},"patient":{"reference":"Patient/10000000","resource":{"resourceType":"Patient","id":"10000000","meta":{"profile":["https://simplifier.net/myhealthway/StructureDefinition/PublicPatient"]},"identifier":[{"type":{"coding":[{"system":"http://myhealthway.go.kr(가칭)","code":"MHID"}]},"system":"미정","value":"10237105"},{"type":{"coding":[{"system":"http://terminology.hl7.org/CodeSystem/v2-0203","code":"NNKOR"}]},"system":"http://mois.go.kr/rnn","value":"9202182******"}],"name":[{"text":"이은빈"}]}},"occurrenceDateTime":"1999-07-06","performer":[{"actor":{"reference":"Organization/14100002","resource":{"resourceType":"Organization","id":"14100002","identifier":[{"value":"리소스식별자(미정)"}],"type":[{"coding":[{"system":"미정","code":"미정","display":"병의원"}],"text":"병의원"}],"name":"기관미상"}}}],"protocolApplied":[{"doseNumberPositiveInt":2}]}},{"resource":{"resourceType":"Immunization","id":"14000002","meta":{"profile":["https://simplifier.net/myhealthway/StructureDefinition/PublicImmunization"]},"identifier":[{"system":"리소스식별자(미정)","value":"7c93c398-48da-4ddc-8f8e-53fac1f29558"}],"contained":[{"resourceType":"Organization","id":"14100002","identifier":[{"value":"리소스식별자(미정)"}],"type":[{"coding":[{"system":"미정","code":"미정","display":"병의원"}],"text":"병의원"}],"name":"코로나19 서울특별시 강남구 예방접종센터(일원에코센터)"}],"status":"completed","vaccineCode":{"coding":[{"system":"코드체계(미정)","code":"9901","display":"코로나19(화이자-바이오엔텍)"}]},"patient":{"reference":"Patient/10000000","resource":{"resourceType":"Patient","id":"10000000","meta":{"profile":["https://simplifier.net/myhealthway/StructureDefinition/PublicPatient"]},"identifier":[{"type":{"coding":[{"system":"http://myhealthway.go.kr(가칭)","code":"MHID"}]},"system":"미정","value":"10237105"},{"type":{"coding":[{"system":"http://terminology.hl7.org/CodeSystem/v2-0203","code":"NNKOR"}]},"system":"http://mois.go.kr/rnn","value":"9202182******"}],"name":[{"text":"이은빈"}]}},"occurrenceDateTime":"2021-08-23","performer":[{"actor":{"reference":"Organization/14100002","resource":{"resourceType":"Organization","id":"14100002","identifier":[{"value":"리소스식별자(미정)"}],"type":[{"coding":[{"system":"미정","code":"미정","display":"병의원"}],"text":"병의원"}],"name":"코로나19 서울특별시 강남구 예방접종센터(일원에코센터)"}}}],"protocolApplied":[{"doseNumberPositiveInt":1}]}},{"resource":{"resourceType":"Immunization","id":"14000003","meta":{"profile":["https://simplifier.net/myhealthway/StructureDefinition/PublicImmunization"]},"identifier":[{"system":"리소스식별자(미정)","value":"211f020b-c26e-40e0-8031-b88f297dbef9"}],"contained":[{"resourceType":"Organization","id":"14100002","identifier":[{"value":"리소스식별자(미정)"}],"type":[{"coding":[{"system":"미정","code":"미정","display":"병의원"}],"text":"병의원"}],"name":"코로나19 서울특별시 강남구 예방접종센터(일원에코센터)"}],"status":"completed","vaccineCode":{"coding":[{"system":"코드체계(미정)","code":"9901","display":"코로나19(화이자-바이오엔텍)"}]},"patient":{"reference":"Patient/10000000","resource":{"resourceType":"Patient","id":"10000000","meta":{"profile":["https://simplifier.net/myhealthway/StructureDefinition/PublicPatient"]},"identifier":[{"type":{"coding":[{"system":"http://myhealthway.go.kr(가칭)","code":"MHID"}]},"system":"미정","value":"10237105"},{"type":{"coding":[{"system":"http://terminology.hl7.org/CodeSystem/v2-0203","code":"NNKOR"}]},"system":"http://mois.go.kr/rnn","value":"9202182******"}],"name":[{"text":"이은빈"}]}},"occurrenceDateTime":"2021-09-29","performer":[{"actor":{"reference":"Organization/14100002","resource":{"resourceType":"Organization","id":"14100002","identifier":[{"value":"리소스식별자(미정)"}],"type":[{"coding":[{"system":"미정","code":"미정","display":"병의원"}],"text":"병의원"}],"name":"코로나19 서울특별시 강남구 예방접종센터(일원에코센터)"}}}],"protocolApplied":[{"doseNumberPositiveInt":2}]}},{"resource":{"resourceType":"Immunization","id":"14000004","meta":{"profile":["https://simplifier.net/myhealthway/StructureDefinition/PublicImmunization"]},"identifier":[{"system":"리소스식별자(미정)","value":"e5877e57-ef9d-4166-bba1-1377c6e296cd"}],"contained":[{"resourceType":"Organization","id":"14100002","identifier":[{"value":"리소스식별자(미정)"}],"type":[{"coding":[{"system":"미정","code":"미정","display":"병의원"}],"text":"병의원"}],"name":"맑은의원"}],"status":"completed","vaccineCode":{"coding":[{"system":"코드체계(미정)","code":"9901","display":"코로나19(화이자-바이오엔텍)"}]},"patient":{"reference":"Patient/10000000","resource":{"resourceType":"Patient","id":"10000000","meta":{"profile":["https://simplifier.net/myhealthway/StructureDefinition/PublicPatient"]},"identifier":[{"type":{"coding":[{"system":"http://myhealthway.go.kr(가칭)","code":"MHID"}]},"system":"미정","value":"10237105"},{"type":{"coding":[{"system":"http://terminology.hl7.org/CodeSystem/v2-0203","code":"NNKOR"}]},"system":"http://mois.go.kr/rnn","value":"9202182******"}],"name":[{"text":"이은빈"}]}},"occurrenceDateTime":"2022-01-10","performer":[{"actor":{"reference":"Organization/14100002","resource":{"resourceType":"Organization","id":"14100002","identifier":[{"value":"리소스식별자(미정)"}],"type":[{"coding":[{"system":"미정","code":"미정","display":"병의원"}],"text":"병의원"}],"name":"맑은의원"}}}],"protocolApplied":[{"doseNumberPositiveInt":3}]}},{"resource":{"resourceType":"Patient","id":"10000000","meta":{"profile":["https://simplifier.net/myhealthway/StructureDefinition/PublicPatient"]},"identifier":[{"type":{"coding":[{"system":"http://myhealthway.go.kr(가칭)","code":"MHID"}]},"system":"미정","value":"10237105"},{"type":{"coding":[{"system":"http://terminology.hl7.org/CodeSystem/v2-0203","code":"NNKOR"}]},"system":"http://mois.go.kr/rnn","value":"9202182******"}],"name":[{"text":"이은빈"}]}}],"medicalData":[]}